ax,ay,az,gx,gy,gz,temp,volt,vel

-0.902177,2.245465,9.396320,14.694704,-0.015266,0.037051,-0.021585,0.868000,0.000000

-1.026718,1.953272,9.417875,14.718235,-0.014733,0.020264,-0.021585,0.872000,0.000000

-0.986002,1.912557,9.453801,14.727058,-0.012601,0.013602,-0.029046,0.872000,0.000000

-0.950077,1.989197,9.470566,14.700586,-0.005673,0.004543,-0.031177,0.872000,0.000000

-0.942892,1.996382,9.427456,14.741764,-0.004074,-0.001586,-0.030378,0.872000,0.000000

-1.029113,2.065838,9.360395,14.738823,-0.004341,-0.010646,-0.030112,0.872000,0.000000

-0.861461,2.202354,9.413086,14.724117,-0.003009,-0.019439,-0.024782,0.872000,0.000000

-0.818351,2.243070,9.432246,14.732941,-0.000610,-0.018906,-0.017321,0.876000,0.000000

-0.770451,2.166429,9.358000,14.741764,-0.002476,-0.026101,-0.012525,0.876000,0.000000

-0.607589,2.231094,9.369975,14.747646,-0.000610,-0.028232,-0.018920,0.872000,0.000000

-0.535739,2.240674,9.391530,14.765293,-0.000610,-0.025568,-0.023184,0.876000,0.000000

-0.547714,2.238280,9.367580,14.762352,-0.003009,-0.018373,-0.027980,0.876000,0.000000

-0.827931,2.204749,9.353210,14.774117,-0.001676,-0.018373,-0.023983,0.876000,0.000000

-1.074618,2.142479,9.374765,14.762352,-0.000877,-0.027433,-0.022651,0.876000,0.000000

-1.467401,2.068233,9.439431,14.779999,0.000455,-0.037825,-0.024516,0.876000,0.000000

-1.544042,2.037098,9.482541,14.777058,0.005785,-0.060741,-0.032510,0.876000,0.000000

-1.579967,2.037098,9.420271,14.779999,0.008183,-0.075130,-0.037306,0.876000,0.000000

-1.929640,2.027518,9.343630,14.782940,0.014045,-0.105506,-0.031710,0.876000,0.000000

-1.809889,2.082603,9.264594,14.785881,0.025769,-0.133218,-0.018121,0.872000,0.000000

-1.584757,2.348450,8.771220,14.794704,0.003920,-0.136682,0.014654,0.876000,0.000000

-2.775082,2.245465,9.853769,14.803528,0.054547,-0.225148,0.114844,0.876000,0.000000

-0.837511,2.487362,9.338840,14.815292,0.070535,-0.259522,0.135362,0.876000,0.000000

-1.397946,2.101763,9.056228,14.815292,0.021240,-0.228346,0.047163,0.876000,0.000000

-0.844696,1.886212,9.037067,14.812351,0.039093,-0.257656,-0.040504,0.876000,0.000000

-0.399222,2.472991,9.202324,14.815292,0.050817,-0.260321,-0.119377,0.876000,0.000000

-1.103358,2.343660,9.274175,14.806469,0.061475,-0.299491,-0.106853,0.876000,0.000000

-1.110543,2.132899,9.259805,14.812351,0.045754,-0.345856,-0.019453,0.876000,0.000000

-0.875831,3.038216,9.336445,14.832939,0.062008,-0.310949,0.067147,0.876000,0.000000

-0.645909,2.609508,9.173584,14.824116,0.068670,-0.326670,0.155613,0.876000,0.000000

0.240248,2.700518,9.022697,14.824116,0.053482,-0.342924,0.262464,0.880000,0.000000

0.522860,2.810689,9.116103,14.838821,0.073733,-0.316811,0.328280,0.876000,0.000000

0.661771,3.198682,8.965217,14.824116,0.019641,-0.316545,0.381573,0.880000,0.000000

0.987494,3.610626,9.686118,14.856470,0.086256,-0.317344,0.374645,0.876000,0.000000

1.394647,2.781949,8.867022,14.835880,0.109439,-0.304820,0.378908,0.876000,0.000000

1.763480,2.338870,8.778405,14.847647,0.018575,-0.278707,0.375178,0.876000,0.000000

1.315612,3.445369,9.877720,14.841763,0.065739,-0.210493,0.384504,0.892000,0.000000

1.729950,2.516102,8.737690,14.862352,0.049485,-0.200900,0.404489,0.892000,0.000000

1.768270,3.795042,9.032277,14.856470,0.011380,-0.189975,0.417012,1.036000,0.000000

2.376605,2.290970,8.713739,14.838821,0.054014,-0.132153,0.413282,1.236000,0.000000

2.292779,2.916070,9.118498,14.850588,-0.030987,-0.124958,0.425539,1.220000,0.000000

2.450851,3.790252,9.353210,14.841763,0.044155,-0.057810,0.486026,1.240000,0.000000

2.055673,2.961576,9.049043,14.856470,0.093451,-0.037825,0.526529,1.228000,0.000000

2.048487,1.907767,8.768826,14.865294,0.031632,-0.021304,0.535855,1.256000,0.000000

1.605409,2.559212,9.415481,14.856470,-0.044577,0.052772,0.552109,1.264000,0.000000

1.564694,3.057376,9.398716,14.856470,-0.029122,0.052772,0.524130,1.248000,0.000000

1.787430,2.705308,8.586803,14.841763,0.048685,0.011471,0.482562,1.248000,0.000000

1.092875,2.384376,9.017907,14.868235,0.042024,0.002144,0.373846,1.284000,0.000000

0.125287,2.161639,10.083691,14.874117,0.024437,0.034386,0.318688,1.296000,0.000000

2.192189,2.772369,8.974797,14.874117,-0.005140,0.028791,0.215567,1.280000,0.000000

1.246156,2.511312,8.816726,14.868235,-0.036849,0.139906,0.191319,1.268000,0.000000

1.318007,3.409444,9.621452,14.874117,0.014578,0.152163,0.173732,1.288000,0.000000

-0.794401,2.523287,9.245434,14.879999,-0.007805,0.097805,0.194783,1.300000,0.000000

0.637821,1.514984,8.524533,14.888823,0.035895,0.051440,0.172133,1.312000,0.000000

0.338444,1.883817,9.848979,14.874117,0.036694,0.001878,0.076473,1.420000,0.000000

1.993402,2.599927,9.180769,14.885881,-0.063495,0.003477,0.068213,1.396000,0.000000

2.010167,2.597533,9.080178,14.885881,-0.011269,0.073024,0.131631,1.376000,0.000000

1.533558,1.601204,9.154424,14.879999,-0.005940,0.087945,0.155613,1.360000,0.000000

1.274896,1.229976,9.008327,14.885881,0.001521,0.099403,0.154813,1.336000,0.000000

0.824632,1.881422,9.458591,14.879999,0.015644,0.117789,0.160942,1.320000,0.000000

0.031881,1.237161,10.021420,14.897646,-0.000077,0.084215,0.134829,1.300000,0.000000

0.515675,1.435948,9.530441,14.891764,0.047619,0.027991,0.071944,1.284000,0.000000

0.922828,2.396351,9.219090,14.894705,0.056679,0.012004,0.026378,1.264000,0.000000

0.922828,2.044283,9.355605,14.909410,0.027635,-0.025035,-0.033842,1.256000,0.000000

0.829423,1.337752,9.520862,14.900587,0.050817,-0.025035,-0.118311,1.252000,0.000000

0.489330,1.325777,8.589199,14.924116,0.014578,-0.022104,-0.152951,1.236000,0.000000

0.340838,1.256322,9.046648,14.915293,-0.094672,-0.040490,-0.179064,1.220000,0.000000

-0.399222,2.288575,9.765154,14.912352,-0.106129,-0.046085,-0.201180,1.200000,0.000000

-0.147745,2.940020,10.174702,14.909410,0.030566,-0.045819,-0.207576,1.188000,0.000000

0.525255,1.922137,9.207114,14.927057,0.122762,-0.095647,-0.203579,1.172000,0.000000

0.482145,0.339029,8.505373,14.903528,-0.045909,-0.153470,-0.176133,1.160000,0.000000

0.259408,2.051468,9.585527,14.906469,-0.113058,-0.144143,-0.155349,1.144000,0.000000

1.068924,2.971155,10.313613,14.897646,-0.020062,-0.112967,-0.117511,1.132000,0.000000

3.004100,2.120924,9.025092,14.915293,-0.060831,-0.134284,0.019983,1.108000,0.000000

3.595670,2.092183,9.439431,14.935881,-0.047774,0.007474,0.157212,1.092000,0.000000

3.693866,3.378309,9.583132,14.924116,0.063341,-0.053280,0.205441,1.084000,0.000000

2.110758,0.451595,7.937753,14.927057,-0.078950,0.052506,0.218498,1.072000,0.000000

1.547928,2.585557,8.823911,14.918234,-0.073355,0.124184,0.134296,1.068000,0.000000

0.324073,2.695728,9.779524,14.929998,0.058544,0.059700,0.016253,1.060000,0.000000

0.680931,2.690938,9.755573,14.932940,0.074799,0.080484,-0.012259,1.048000,0.000000

1.006654,1.759276,8.704160,14.909410,-0.000610,0.006674,-0.055159,1.040000,0.000000

1.610199,1.914952,8.629914,14.924116,-0.065894,0.025593,-0.075410,1.036000,0.000000

2.225719,2.645433,9.343630,14.924116,-0.065094,0.046910,-0.040237,1.028000,0.000000

2.165843,2.267020,9.441826,14.927057,-0.019529,0.126050,0.007460,1.024000,0.000000

1.799406,1.687425,9.039463,14.929998,-0.002742,0.128181,0.002930,1.020000,0.000000

0.434244,1.531749,9.422666,14.935881,0.013246,0.154028,-0.047965,1.012000,0.000000

-0.157326,0.976104,9.393926,14.944704,-0.059232,0.090077,-0.108984,1.004000,0.000000

0.374369,1.277877,9.753179,14.938822,-0.032852,0.062365,-0.164409,1.000000,0.000000

-0.023204,2.106554,9.844189,14.944704,0.022039,0.078886,-0.208375,0.996000,0.000000

0.664166,1.124595,9.104128,14.950586,0.003920,0.041847,-0.216369,0.992000,0.000000

0.786312,0.858748,9.140054,14.941763,-0.017664,0.025060,-0.226228,0.988000,0.000000

0.733622,1.730535,9.604687,14.968235,-0.038182,0.037051,-0.167606,0.984000,0.000000

-0.102240,2.187984,9.777128,14.962351,-0.009137,0.023994,-0.010127,0.980000,0.000000

0.879718,4.736285,9.322075,14.953527,0.032697,0.077553,0.034639,0.976000,0.000000

0.067806,2.396351,9.367580,14.935881,0.080394,-0.045552,0.082602,0.972000,0.000000

2.264039,2.106554,9.300520,14.950586,-0.025658,0.054638,0.110314,0.968000,0.000000

2.043698,1.859866,9.449011,14.962351,-0.034185,-0.010379,0.038636,0.964000,0.000000

-0.205226,1.713770,9.578342,14.956469,0.032165,0.092209,0.003196,0.960000,0.000000

0.532440,1.505404,9.192744,14.950586,-0.027523,0.021596,-0.045300,0.952000,0.000000

-0.145350,1.852681,9.688513,14.971176,-0.006473,0.062898,-0.101257,0.956000,0.000000

0.206717,1.783226,9.135263,14.956469,-0.018463,0.012537,-0.119110,0.952000,0.000000

0.388739,1.919742,9.293335,14.965292,-0.007805,0.009073,-0.086602,0.952000,0.000000

0.343234,2.341265,9.255014,14.977058,-0.001943,-0.004251,-0.042102,0.948000,0.000000

-0.188461,2.769974,9.482541,14.953527,0.001788,-0.011179,-0.015723,0.944000,0.000000

0.994679,2.882540,9.283754,14.968235,-0.009137,-0.024235,0.039169,0.940000,0.000000

1.035394,2.808294,9.353210,14.971176,0.003120,0.012803,0.100988,0.940000,0.000000

1.701210,2.372401,9.255014,14.968235,-0.010736,0.024527,0.151616,0.940000,0.000000

1.353932,1.864656,9.487331,14.965292,-0.008338,0.063964,0.132963,0.940000,0.000000

0.300123,1.651500,9.381950,14.956469,-0.003808,0.044512,0.054091,0.936000,0.000000

-0.092660,1.620364,9.583132,14.980000,-0.005940,0.027725,-0.051162,0.932000,0.000000

-0.224386,1.692215,9.468171,14.977058,-0.022460,-0.000787,-0.157481,0.932000,0.000000

-0.123795,2.094578,9.427456,14.985882,-0.007005,-0.026367,-0.187591,0.932000,0.000000

0.666561,1.826336,9.243039,14.988823,-0.026191,-0.054079,-0.150020,0.924000,0.000000

-0.073500,2.398746,9.494516,14.974117,0.011114,-0.040756,-0.120176,0.928000,0.000000

0.079781,2.528077,9.283754,14.988823,0.009782,-0.069534,-0.081539,0.924000,0.000000

0.211507,2.156849,9.626243,14.985882,0.001788,-0.072465,-0.004265,0.920000,0.000000

-0.303422,2.525682,9.530441,14.988823,0.003920,-0.114300,0.059153,0.920000,0.000000

0.546810,2.022728,8.330537,14.988823,0.013246,-0.150272,0.106850,0.920000,0.000000

-0.360902,2.966366,9.334050,14.982941,-0.098669,0.215314,0.264329,0.920000,0.000000

4.414767,3.313643,9.484936,14.980000,-0.166883,-0.296826,0.234219,0.920000,0.000000

2.038908,1.706585,9.013118,14.994705,0.119031,0.119388,0.236617,0.920000,0.000000

0.434244,3.775882,9.489726,15.006470,0.042024,-0.018640,0.221962,0.916000,0.000000

1.483263,1.747301,8.881392,14.991764,-0.065361,-0.065537,0.209438,0.916000,0.000000

1.442548,1.776041,9.257409,14.997646,0.009249,-0.017840,0.132164,0.912000,0.000000

1.262921,2.602323,10.277688,14.988823,0.053482,-0.026633,0.020783,0.916000,0.000000

1.538348,1.814361,9.741203,14.991764,-0.033918,-0.064205,-0.067150,0.912000,0.000000

1.059344,2.084998,9.252620,14.985882,0.020174,-0.013843,-0.101524,0.908000,0.000000

0.932408,0.968919,8.845466,14.980000,-0.017397,-0.013843,-0.040770,0.908000,0.000000

-0.315397,1.404813,9.968730,14.988823,0.018575,-0.025035,-0.046632,0.908000,0.000000

4.175265,4.489598,7.396479,14.985882,0.165129,-0.154003,-0.064752,0.908000,0.000000

-1.007557,3.366334,9.638218,14.982941,0.122495,0.131112,0.044498,0.908000,0.000000

3.061581,1.689820,9.690907,15.003529,-0.181805,-0.209960,0.035705,0.908000,0.000000

-1.546437,3.608231,9.216694,14.991764,0.122495,0.189468,-0.054626,0.908000,0.000000

0.027091,3.680081,9.604687,14.994705,-0.059232,-0.063405,-0.179863,0.908000,0.000000

1.715580,3.680081,8.742480,15.009411,-0.040313,-0.062339,-0.203845,0.908000,0.000000

0.977914,3.799832,8.337722,15.006470,0.020707,0.067428,-0.166274,0.908000,0.000000

0.221088,3.648946,9.089758,14.994705,-0.016332,-0.028499,-0.119377,0.904000,0.000000

0.896483,4.374637,9.494516,14.988823,0.026569,-0.001586,-0.043168,0.904000,0.000000

2.041302,3.586675,8.507768,14.997646,0.024437,0.016267,0.046630,0.904000,0.000000

1.540743,3.960299,8.723320,14.988823,-0.057367,0.001345,0.067414,0.952000,0.000000

0.139657,4.487203,9.973520,14.994705,0.076664,0.116990,0.069812,1.060000,0.000000

1.169515,4.372242,8.644284,14.994705,0.053748,0.044512,0.018385,1.296000,0.000000

1.205441,4.451278,8.919712,14.994705,-0.001410,0.045578,-0.037573,1.832000,0.000000

1.468893,4.611744,8.613149,15.003529,-0.008871,0.066628,-0.000801,2.364000,0.000000

-0.092660,4.856036,9.132869,14.994705,0.007384,0.069027,-0.027713,3.740000,0.000000

0.819842,4.252491,8.364067,15.003529,0.051883,0.067961,-0.009328,4.616000,0.000000

0.747992,4.286021,8.349697,15.009411,-0.026990,0.063964,0.039968,4.996000,0.000000

0.771942,4.513548,8.922107,15.012352,0.030033,0.086347,0.108449,5.216000,0.000000

0.580340,3.615416,9.252620,15.029999,-0.023526,0.041314,0.170002,5.636000,0.000000

0.908458,3.756722,8.498188,15.024117,0.007117,0.074356,0.232354,5.784000,0.000000

0.731227,3.488480,9.089758,15.003529,-0.034451,0.094607,0.317888,6.092000,0.000000

1.133590,3.459739,10.620175,15.015293,0.011647,0.136974,0.350130,6.492000,0.000000

1.531163,2.281390,9.477751,15.027058,0.006851,0.108729,0.248075,6.652000,0.000000

-1.369205,2.829849,8.962822,15.029999,0.121163,0.160423,0.330146,6.780000,0.000000

0.489330,3.524405,8.407177,15.015293,0.074266,0.091409,0.599006,6.832000,0.000000

0.625846,2.566397,8.912526,15.018234,0.001788,0.110328,0.882789,6.768000,0.000000

1.404227,2.540052,8.481422,15.009411,0.034030,0.068227,1.076241,6.900000,0.000000

-0.044760,2.901700,7.252778,15.015293,0.047619,0.257416,1.135395,7.000000,0.000000

2.462826,4.506363,9.803473,15.003529,0.029766,0.196129,1.028810,7.092000,0.000000

5.063817,5.876315,10.169911,15.021175,0.105442,0.264344,0.712786,7.168000,0.000000

5.334455,5.050033,7.841952,15.024117,0.034030,0.389314,0.340005,7.204000,0.000000

3.801642,6.594820,6.850414,15.021175,0.108906,0.572374,-0.057557,7.240000,0.000000

-1.038693,5.330250,10.711186,15.035881,0.021506,0.641921,-0.543318,7.272000,0.000000

-1.342860,4.906332,8.613149,15.032940,-0.021927,0.513486,-0.917432,7.260000,0.000000

-4.195329,3.043006,7.671906,15.035881,-0.020595,0.568644,-1.426641,7.296000,0.000000

-4.760553,4.302787,8.797565,15.027058,-0.088543,0.360803,-1.977686,7.300000,0.000000

-3.218160,3.057376,9.346025,15.027058,-0.099468,0.156426,-2.292911,7.288000,0.000000

-0.617169,2.676568,8.828701,15.032940,-0.027257,-0.030097,-2.312896,7.292000,0.000000

-2.176327,3.775882,9.702883,15.015293,0.005785,-0.158266,-2.001401,7.316000,0.000000

2.050883,2.712493,7.255173,15.029999,-0.047774,-0.243534,-1.611300,7.312000,0.000000

2.319125,5.198524,9.255014,15.021175,-0.009937,-0.132952,-1.086369,7.324000,0.000000

1.567089,4.640484,9.789104,15.038822,-0.000344,-0.143078,-0.676283,7.320000,0.000000

2.299965,1.450318,10.395043,15.018234,-0.071223,-0.165194,-0.470574,7.308000,0.000000

2.994520,2.968760,9.810658,15.027058,0.014578,-0.079659,-0.495888,7.312000,0.000000

0.501305,2.197564,9.681328,15.024117,-0.050705,0.031455,-0.540920,7.312000,0.000000

-1.256639,-0.362712,9.398716,15.032940,-0.031520,-0.020505,-0.644574,7.320000,0.000000

0.458195,0.774923,9.374765,15.047646,-0.003009,-0.079127,-0.659762,7.296000,0.000000

-0.233966,1.852681,11.051279,15.038822,-0.020595,-0.035960,-0.548115,7.288000,0.000000

-0.341742,1.756881,8.562854,15.021175,0.021772,-0.026633,-0.546249,7.304000,0.000000

-1.484166,2.504127,8.457473,15.041763,0.069203,0.037850,-0.551046,7.304000,0.000000

-4.018097,0.638407,6.558222,15.035881,-0.221241,-0.066336,-0.487095,7.312000,0.000000

-1.031508,5.119488,12.557746,15.035881,0.514195,-0.542771,-0.565701,7.308000,0.000000

-0.617169,-2.393688,8.555669,15.053528,0.088388,-0.321341,-0.598742,7.300000,0.000000

-1.927245,0.918624,9.358000,15.032940,-0.032319,-0.244600,-0.338675,7.292000,0.000000

-1.108148,3.478900,10.569880,15.038822,0.048152,-0.215022,-0.164675,7.292000,0.000000

0.903668,2.080208,9.870534,15.032940,0.091852,-0.225681,-0.109517,7.296000,0.000000

1.849701,1.467083,9.810658,15.038822,0.189111,-0.238471,0.053558,7.268000,0.000000

-2.712811,0.365374,3.938071,15.074116,-0.406433,0.265942,0.294706,7.288000,0.000000

-1.484166,6.422379,13.276252,15.041763,0.988232,-0.282171,0.350930,7.308000,0.000000

3.624410,0.913834,10.989009,15.047646,-1.018764,-0.663479,0.355193,7.272000,0.000000

0.659376,1.347332,5.837321,15.041763,0.084924,-0.013044,0.387169,7.272000,0.000000

0.125287,3.387889,9.449011,15.056469,0.128091,0.174546,0.518535,7.248000,0.000000

1.095270,1.055140,11.386581,15.074116,-0.065894,-0.017574,0.696265,7.224000,0.000000

0.850978,1.610784,9.954360,15.044704,0.133953,0.133510,0.512406,7.208000,0.000000

1.224601,1.912557,9.305309,15.053528,-0.146365,0.173480,0.267261,7.220000,0.000000

2.893929,1.059930,7.044411,15.035881,-0.177541,0.181740,0.288844,7.216000,0.000000

-6.858590,-0.398637,9.664562,15.044704,0.163531,0.218778,0.333610,7.192000,1767.320777

-1.062643,2.513707,11.010564,15.056469,-0.181538,0.388515,-0.055426,7.180000,1767.320777

-2.315238,3.189102,10.256132,15.053528,-0.086145,0.202791,-0.288847,7.192000,1767.320777

2.055673,4.927886,7.870693,15.032940,0.026036,-0.004251,-0.188390,7.216000,1767.320777

-0.341742,2.863380,7.224037,15.047646,0.055347,0.103400,0.034639,7.232000,1767.320777

-2.614615,3.907608,8.881392,15.041763,0.062275,0.080751,0.096991,7.236000,1767.320777

1.643729,3.783067,9.520862,15.047646,0.009249,0.110328,0.326415,7.260000,1767.320777

0.391134,3.419024,8.225156,15.041763,0.047886,0.134310,0.576890,7.244000,1767.320777

0.477355,3.538775,8.740085,15.056469,0.009515,0.119921,0.639242,7.280000,1767.320777

-0.327372,3.675291,8.914922,15.056469,-0.011535,0.242494,0.498017,7.264000,1767.320777

-2.638566,3.246583,9.504096,15.056469,-0.026457,0.215581,0.227025,7.288000,1767.320777

-3.409762,3.821388,8.143725,15.044704,0.035362,0.214249,-0.006130,7.300000,1767.320777

-5.021610,6.302628,8.251501,15.059410,0.043889,0.087679,-0.047432,7.300000,1767.320777

-4.111503,2.530472,9.429851,15.056469,-0.045643,-0.057010,0.088997,7.324000,1767.320777

-3.134335,6.594820,8.103010,15.062351,0.030033,-0.041289,0.229689,7.332000,1767.320777

-2.799032,2.489757,8.627519,15.053528,-0.047241,-0.224882,0.575824,7.344000,1767.320777

-0.660280,3.220237,8.328141,15.062351,0.038027,-0.094048,1.063184,7.352000,1767.320777

-1.060248,4.480018,9.032277,15.053528,-0.074154,-0.089519,1.488991,7.352000,1767.320777

1.174305,3.524405,9.317285,15.041763,0.024437,-0.090318,1.603303,7.344000,1767.320777

-0.631539,3.258558,9.549602,15.041763,0.011913,0.138040,1.416780,7.364000,1767.320777

-1.563202,2.530472,8.826305,15.047646,0.035096,0.205722,1.168970,7.368000,1767.320777

-1.785939,3.902818,9.777128,15.041763,-0.007005,0.136442,0.954734,7.364000,1767.320777

-2.516420,2.166429,9.161609,15.053528,0.028701,0.121520,0.690936,7.364000,1767.320777

-3.383417,2.116133,9.520862,15.071175,0.019641,0.119921,0.380507,7.384000,1767.320777

-2.111661,0.832403,10.627360,15.053528,-0.109327,0.115391,0.200112,7.376000,1767.320777

-3.275641,0.976104,9.779524,15.047646,0.078263,0.036252,0.162274,7.376000,1767.320777

-5.711376,-1.153068,9.678933,15.050587,-0.042978,-0.078860,0.040235,7.364000,1767.320777

-3.230135,-0.501623,11.386581,15.056469,-0.013933,-0.243534,0.031175,7.356000,1767.320777

-2.609826,-0.027409,11.616504,15.059410,0.057212,-0.303488,0.123104,7.352000,1767.320777

-1.378785,0.075577,7.779682,15.062351,0.028701,-0.443914,0.094859,7.332000,1767.320777

1.215021,-0.132790,9.367580,15.074116,0.052949,-0.436186,0.147352,7.328000,1767.320777

0.441429,1.869447,9.482541,15.041763,-0.003808,-0.387690,0.314957,7.328000,1767.320777

3.514239,3.785462,8.977192,15.050587,0.092119,-0.049283,0.343202,7.316000,1767.320777

-0.226781,4.738680,7.925778,15.062351,0.155537,0.013602,0.292574,7.324000,1767.320777

-2.657726,4.745865,8.455077,15.062351,0.087056,-0.121228,0.192118,7.344000,1767.320777

-0.408803,4.123160,9.992681,15.053528,0.001521,-0.248597,0.198513,7.344000,1767.320777

-3.795360,0.870723,7.037226,15.056469,-0.018996,-0.139614,0.347199,7.356000,1767.320777

-2.348768,1.764066,9.432246,15.047646,0.131555,-0.400480,0.392231,7.340000,1767.320777

0.865348,-0.810580,8.383227,15.056469,0.020440,-0.524119,0.598473,7.348000,1767.320777

2.826869,3.675291,8.790380,15.065292,-0.068025,-0.394885,0.816440,7.340000,1767.320777

3.023261,3.613021,10.476475,15.068233,0.027901,-0.222483,0.891582,7.332000,1767.320777

2.321520,4.034544,9.199929,15.050587,0.245601,-0.220352,0.966991,7.352000,1767.320777

2.944225,5.933795,7.964098,15.059410,0.016177,-0.066336,0.690136,7.376000,1767.320777

1.672469,4.393797,9.844189,15.047646,0.021240,-0.022370,0.482829,7.372000,11.856818

0.867743,4.171061,9.413086,15.068233,0.158201,0.035452,0.271524,7.392000,11.856818

-0.703390,3.711217,8.768826,15.047646,-0.000344,0.012803,0.033306,7.392000,11.856818

0.130077,4.681200,8.680209,15.068233,0.020973,-0.000520,-0.077275,7.404000,11.856818

1.629359,3.222633,9.231064,15.065292,0.012446,-0.113767,-0.176133,7.404000,11.856818

2.790944,3.993829,9.037067,15.071175,-0.049906,0.011204,-0.193986,7.416000,11.856818

2.778969,3.359149,9.365185,15.059410,0.032964,0.001878,-0.062087,7.416000,11.856818

3.380118,3.536380,8.766430,15.068233,0.028168,-0.014909,0.126035,7.412000,11.856818

3.162172,0.346214,9.853769,15.053528,-0.048307,0.065563,0.358391,7.424000,11.856818

4.081859,1.946087,10.862072,15.056469,-0.021128,0.119921,0.577956,7.420000,11.856818

5.008732,-0.281281,9.065807,15.074116,0.115301,0.271005,0.752489,7.428000,11.856818

2.984940,1.843101,9.856164,15.062351,0.034829,0.346680,0.831628,7.412000,11.856818

2.666403,-1.579381,9.072993,15.065292,0.014045,0.413829,0.913166,7.404000,11.856818

1.437757,-2.458354,10.342353,15.056469,0.101178,0.449269,0.908103,7.408000,11.856818

-0.243546,0.324659,9.626243,15.053528,0.155537,0.590494,0.873996,7.392000,11.856818

-0.415988,-0.111235,11.084809,15.050587,0.061209,0.443140,0.680277,7.384000,11.856818

-0.219596,0.331844,10.715977,15.062351,0.083858,0.525210,0.465775,7.380000,11.856818

-0.952472,2.156849,10.313613,15.065292,0.238673,0.542530,0.215034,7.384000,11.856818

-0.593219,2.638248,8.507768,15.062351,0.148342,0.484175,0.181193,7.380000,11.856818

-1.108148,1.996382,8.989167,15.059410,0.131821,0.405569,0.324284,7.376000,11.856818

-0.485443,3.198682,9.178373,15.056469,0.013512,0.386650,0.512406,7.380000,11.856818

-0.301027,3.881263,9.317285,15.074116,0.206964,0.409566,0.603803,7.380000,11.856818

0.381554,3.759117,8.819120,15.068233,0.182449,0.394111,0.637111,7.384000,11.856818

0.477355,3.481295,7.633585,15.074116,0.167794,0.344282,0.591812,7.400000,11.856818

0.654586,5.289535,9.231064,15.068233,0.108373,0.433014,0.553708,7.388000,11.856818

0.621056,3.811807,9.592712,15.059410,0.147276,0.407700,0.514271,7.408000,11.856818

1.945502,5.038058,9.046648,15.077057,0.174455,0.541198,0.555839,7.412000,11.856818

1.064134,6.925333,7.501860,15.071175,0.144612,0.477514,0.676014,7.428000,11.856818

0.714462,4.195011,8.795171,15.079998,0.073999,0.489238,0.494287,7.436000,11.856818

-1.340465,6.108631,9.156818,15.071175,0.141414,0.634193,0.198513,7.444000,11.856818

-3.630104,4.745865,8.840676,15.065292,0.089720,0.580102,-0.088733,7.444000,11.856818

-4.693492,2.695728,9.475356,15.068233,0.043889,0.495367,-0.277389,7.452000,11.856818

-3.826495,3.581886,9.896879,15.077057,-0.063762,0.419691,-0.258203,7.448000,15.639356

-5.512589,-0.010644,9.245434,15.085880,-0.115722,0.229970,-0.070081,7.440000,15.639356

-5.265902,3.033426,11.398557,15.077057,-0.019529,0.145501,-0.073279,7.440000,15.639356

-2.937943,0.006121,9.171188,15.074116,0.031099,-0.002119,-0.147888,7.440000,15.639356

-2.698441,-0.156740,9.458591,15.085880,-0.049107,-0.002652,-0.168672,7.444000,15.639356

-2.787057,-0.281281,9.995075,15.074116,0.049751,-0.142278,-0.105254,7.436000,15.639356

-1.747618,-1.691947,11.944621,15.079998,-0.040047,-0.315479,-0.131367,7.420000,15.639356

-0.621959,-1.069242,10.495634,15.059410,0.081194,-0.247264,-0.184393,7.416000,15.639356

2.932250,0.578531,9.892090,15.082939,0.060676,-0.350918,-0.316026,7.404000,15.639356

0.546810,0.947364,8.306586,15.085880,0.143546,-0.159332,-0.190788,7.396000,15.639356

-2.523605,3.653736,8.294611,15.079998,0.152339,-0.116165,-0.036507,7.392000,15.639356

-0.700995,2.544842,7.195297,15.059410,0.067338,-0.347188,-0.091664,7.396000,15.639356

2.043698,3.464530,9.290939,15.065292,0.020707,-0.272045,0.037303,7.388000,15.639356

1.816171,1.893397,9.346025,15.088821,0.032697,-0.242735,0.294706,7.392000,15.639356

2.994520,2.209539,9.137658,15.077057,0.132887,-0.083923,0.547313,7.392000,15.639356

2.388580,4.578214,7.738966,15.079998,0.049751,-0.001053,0.525729,7.408000,15.639356

1.021024,6.142161,8.421547,15.056469,0.073466,0.051174,0.350930,7.396000,15.639356

1.052159,6.020016,7.892248,15.050587,0.052682,0.093541,0.143089,7.416000,15.639356

0.053436,5.785304,7.971283,15.065292,0.055347,0.080484,-0.011459,7.424000,15.639356

-1.354835,6.043966,9.276569,15.077057,-0.003009,0.091942,-0.236620,7.432000,15.639356

-1.132098,4.465648,8.886181,15.094706,-0.060298,0.081550,-0.463380,7.432000,15.639356

-1.661398,5.124278,8.974797,15.088821,-0.020861,-0.012777,-0.598210,7.440000,15.639356

-0.830326,4.216566,6.912685,15.085880,-0.030721,-0.110836,-0.682412,7.448000,15.639356

-0.459098,6.312208,9.439431,15.077057,0.088122,-0.181715,-0.549447,7.456000,15.639356

0.482145,2.326895,9.209509,15.079998,-0.011269,-0.318143,-0.320023,7.460000,15.639356

2.017352,2.173614,10.186677,15.082939,-0.024592,-0.224082,-0.110583,7.456000,15.639356

3.775297,4.286021,10.390254,15.059410,0.028967,-0.100976,0.103386,7.460000,15.639356

3.863912,2.152059,9.813054,15.050587,0.040158,-0.059675,0.298970,7.460000,15.639356

2.994520,2.446646,10.500424,15.071175,0.062275,0.070359,0.363986,7.452000,15.639356

3.243602,1.095855,10.636941,15.074116,-0.062430,0.169483,0.377310,7.452000,15.639356

2.340680,-2.853532,10.184282,15.077057,-0.160754,0.322699,0.341337,7.440000,15.639356

1.483263,-2.350578,9.226274,15.071175,0.017776,0.402638,0.265662,7.444000,15.639356

2.666403,0.736602,8.749665,15.050587,0.043089,0.605948,0.208372,7.424000,16.075035

1.145565,-0.736335,6.177414,15.071175,-0.390445,0.381054,0.090329,7.412000,16.075035

-2.518815,-0.566288,9.144843,15.079998,0.032431,0.474316,-0.089799,7.412000,16.075035

0.637821,3.430999,9.678933,15.068233,0.156869,0.215847,-0.045033,7.408000,16.075035

-1.754804,2.496942,9.453801,15.082939,-0.093606,0.307777,-0.004265,7.380000,16.075035

-3.876791,1.871841,9.274175,15.059410,-0.034451,0.250488,0.019450,7.380000,16.075035

-4.101923,3.110067,7.621611,15.059410,0.015377,0.170549,0.070078,7.388000,16.075035

-3.060089,5.696688,7.384504,15.077057,-0.044044,0.081817,0.190519,7.384000,16.075035

-1.896110,4.731495,8.182045,15.079998,0.036961,0.027991,0.368783,7.408000,16.075035

-1.433871,4.254886,9.101733,15.053528,-0.009404,-0.007715,0.612329,7.408000,16.075035

-0.447123,8.855719,7.224037,15.077057,0.120630,0.039183,0.784997,7.424000,16.075035

2.014957,4.523129,7.758127,15.068233,-0.095471,-0.055411,0.904372,7.428000,16.075035

2.252064,6.927728,8.871811,15.091763,0.079861,0.174279,0.841221,7.440000,16.075035

0.295333,3.416629,8.967612,15.074116,-0.061897,0.258481,0.678945,7.452000,16.075035

-1.026718,3.076536,10.011841,15.079998,-0.109860,0.421290,0.350930,7.448000,16.075035

-2.609826,4.202196,8.452682,15.079998,0.091319,0.560916,0.098323,7.452000,16.075035

-4.161798,3.526800,8.651469,15.088821,-0.130378,0.376524,-0.040770,7.460000,16.075035

-5.701796,1.893397,9.666958,15.065292,0.019641,0.282996,-0.235821,7.460000,16.075035

-7.490875,-0.360317,10.129196,15.071175,-0.022993,0.078086,-0.372516,7.460000,16.075035

-6.865775,-0.674064,10.634545,15.068233,-0.075486,-0.264052,-0.518004,7.448000,16.075035

-4.561767,-1.208153,12.320640,15.065292,0.116367,-0.080992,-0.451122,7.444000,16.075035

-2.875673,-2.970888,10.042975,15.056469,-0.017131,-0.638431,-0.317358,7.436000,16.075035

-1.275800,-1.193783,8.050320,15.068233,0.172857,-0.407941,-0.133765,7.428000,16.075035

-0.760870,0.180958,9.417875,15.074116,0.125693,-0.533978,0.031441,7.424000,16.075035

-1.587152,-0.482463,8.687394,15.050587,-0.008604,-0.571016,0.219830,7.412000,16.075035

4.409977,3.110067,7.176137,15.056469,0.141681,-0.540640,0.228091,7.400000,16.075035

2.053277,3.648946,8.759245,15.079998,0.255460,-0.362110,0.553974,7.400000,16.075035

0.271383,4.130345,9.501701,15.074116,0.129956,-0.315479,0.747426,7.392000,16.075035

0.257013,3.239398,8.584409,15.065292,0.035362,-0.282437,0.790060,7.392000,16.075035

1.976637,3.208262,9.647798,15.077057,0.095583,-0.177185,0.582752,7.404000,16.075035

-0.080685,3.955508,8.522139,15.068233,0.110771,-0.106306,0.421276,7.400000,16.075035

-0.130980,3.979459,8.064690,15.074116,0.046820,-0.170257,0.254470,7.404000,16.075035

-0.154930,4.662040,8.962822,15.074116,0.142214,-0.157467,0.248075,7.416000,16.075035

-0.274681,6.257123,9.214299,15.074116,0.152872,-0.197969,0.305631,7.416000,16.075035

0.170792,6.343343,8.033554,15.082939,0.075065,-0.176652,0.362654,7.424000,14.968189

-2.549950,5.296720,7.214457,15.085880,0.210428,-0.132419,0.327481,7.444000,14.968189

-1.826654,7.009159,5.281676,15.077057,-0.026191,-0.172122,0.104718,7.440000,14.968189

-1.479376,7.732454,7.080336,15.088821,-0.129045,-0.163595,-0.077009,7.440000,14.968189

-0.710575,3.040611,9.472961,15.079998,-0.141036,-0.204097,-0.144957,7.452000,14.968189

1.167120,1.720955,9.887300,15.071175,-0.016598,-0.366373,-0.209707,7.456000,14.968189

2.108363,3.759117,8.993958,15.085880,0.053215,-0.347987,0.116976,7.468000,14.968189

4.206400,0.803663,8.064690,15.077057,-0.021661,-0.265117,0.469506,7.468000,14.968189

4.414767,2.621483,11.805710,15.077057,-0.184203,-0.215555,0.878259,7.464000,14.968189

4.733305,-0.640534,10.663286,15.085880,0.234942,0.001612,1.136728,7.460000,14.968189

2.386185,1.112620,11.659614,15.091763,-0.010469,0.025593,1.275022,7.464000,14.968189

1.464103,1.021610,10.363909,15.059410,0.258924,0.211318,1.456483,7.452000,14.968189

1.670074,-4.429455,8.926897,15.071175,-0.249220,0.164953,1.426639,7.444000,14.968189

-1.069828,-0.690829,10.490845,15.079998,0.209096,0.474050,1.534290,7.432000,14.968189

1.765875,0.082762,10.605805,15.074116,0.206431,0.230236,1.496985,7.416000,14.968189

-1.194369,0.909044,9.559182,15.068233,0.342860,0.367731,1.271824,7.416000,14.968189

-0.384852,-0.185480,9.001143,15.074116,0.131821,0.264610,1.102354,7.408000,14.968189

0.973124,2.271810,9.173584,15.071175,0.245601,0.313639,1.090363,7.412000,14.968189

1.052159,3.744747,9.053833,15.074116,0.293298,0.338154,0.991506,7.404000,14.968189

0.824632,3.454949,9.281360,15.077057,0.296495,0.344016,0.821503,7.420000,14.968189

0.254618,5.366175,8.292216,15.071175,0.415604,0.362668,0.709055,7.412000,14.968189

0.307308,6.209222,7.281518,15.094706,0.240272,0.344016,0.588081,7.432000,14.968189

2.716698,6.628351,6.876760,15.091763,0.255194,0.369863,0.561169,7.440000,14.968189

1.775455,7.928846,7.707831,15.088821,0.214958,0.489771,0.675748,7.448000,14.968189

0.082176,5.833204,9.748388,15.082939,0.219754,0.467654,0.812443,7.448000,14.968189

-0.171696,6.712176,7.722201,15.074116,0.261322,0.451933,0.847616,7.464000,14.968189

-0.609984,7.993512,7.897038,15.065292,0.149142,0.457795,0.822568,7.472000,14.968189

-0.559689,4.765025,10.713581,15.082939,0.027901,0.461792,0.810311,7.476000,14.968189

-0.138165,6.508600,10.636941,15.085880,0.207763,0.516950,0.755953,7.476000,14.968189

-3.019374,4.709940,9.851375,15.082939,0.200569,0.501762,0.698130,7.488000,14.968189

-2.983449,2.616693,9.274175,15.074116,0.043622,0.355740,0.659493,7.488000,14.968189

-1.864974,3.787857,9.484936,15.088821,0.145944,0.387982,0.704526,7.484000,14.968189

-3.608549,2.556817,10.349538,15.079998,0.102777,0.281397,0.657362,7.488000,16.502629

-4.980895,1.426368,11.111155,15.062351,0.282106,0.112460,0.654431,7.488000,16.502629

-3.266061,-1.014157,10.076506,15.074116,0.046021,-0.049816,0.686939,7.484000,16.502629

-1.778754,0.770133,8.574828,15.074116,0.023638,-0.060208,0.726908,7.476000,16.502629

-2.791847,-0.712384,9.195139,15.062351,0.030566,-0.038358,0.790593,7.476000,16.502629

1.215021,-1.390175,12.210468,15.079998,0.011380,-0.325604,0.770875,7.472000,16.502629

3.873492,-3.672629,11.156660,15.079998,0.239739,-0.276842,0.720247,7.464000,16.502629

6.191871,-0.295651,10.133986,15.088821,0.414005,0.273403,0.641640,7.472000,16.502629

1.516793,-0.808185,8.855046,15.074116,0.411874,0.323765,0.518801,7.468000,16.502629

3.540585,2.334080,8.443103,15.082939,0.288501,0.237164,0.053558,7.456000,16.502629

4.457877,2.288575,9.017907,15.097647,0.241071,0.324831,-0.444727,7.436000,16.502629

3.092716,3.162757,7.554550,15.085880,0.197638,0.436478,-0.397830,7.432000,16.502629

-0.279472,4.753050,7.844347,15.082939,0.213359,0.257682,-0.184127,7.424000,16.502629

2.580182,3.438184,7.992838,15.085880,0.176054,0.094074,0.292841,7.432000,16.502629

2.996915,3.557935,8.050320,15.077057,0.159267,0.235566,0.604869,7.424000,16.502629

1.526373,5.327855,9.736413,15.091763,0.131821,0.302448,0.715450,7.428000,16.502629

0.934803,5.102723,8.953242,15.077057,0.190976,0.334157,0.667487,7.444000,16.502629

-0.724945,5.155414,10.026211,15.094706,0.233077,0.453798,0.473769,7.440000,16.502629

-0.581244,3.914793,9.425060,15.085880,0.288235,0.361336,0.220630,7.456000,16.502629

-1.208739,5.890685,7.228827,15.068233,0.086256,0.453532,-0.214504,7.460000,16.502629

-2.279313,4.920702,9.049043,15.071175,0.100379,0.393844,-0.719983,7.452000,16.502629

-1.093778,4.733890,6.534272,15.071175,0.104109,0.209452,-1.050130,7.456000,16.502629

-1.268615,7.483373,3.966811,15.079998,0.003920,0.115391,-1.292078,7.464000,16.502629

1.092875,4.195011,4.285348,15.068233,-0.382718,-0.122293,-1.270761,7.448000,16.502629

3.835172,4.432117,9.413086,15.079998,-0.420822,-0.076995,-0.851083,7.436000,16.502629

5.123693,-1.943424,12.284714,15.079998,0.012979,-0.078594,-0.265132,7.444000,16.502629

4.158500,1.467083,13.405583,15.091763,-0.303045,-0.117764,0.071144,7.448000,16.502629

4.630319,4.628509,8.759245,15.059410,0.257059,0.128714,0.595009,7.452000,16.502629

3.061581,2.358031,6.031318,15.059410,-0.107462,0.013869,1.097558,7.424000,16.502629

2.829264,-0.283676,10.984219,15.068233,-0.417091,0.013602,1.519368,7.408000,16.502629

-1.060248,-0.966257,11.453642,15.062351,0.209362,0.395443,1.665656,7.408000,16.502629

-1.603917,-2.132631,9.731624,15.071175,-0.042445,0.063164,1.595043,7.392000,16.502629

-2.130822,0.978499,8.493398,15.074116,-0.016332,0.240895,1.406388,7.372000,16.502629

-0.047155,2.956785,8.653864,15.062351,-0.061897,0.040782,1.130599,7.368000,15.362295

1.825751,0.834798,9.925620,15.065292,0.067071,0.144702,1.029343,7.360000,2448.138175

0.934803,1.663475,9.599897,15.068233,-0.130378,0.214515,0.864137,7.332000,2448.138175

-0.049550,2.245465,11.559023,15.065292,0.084391,0.222775,0.810578,7.348000,2448.138175

1.385067,3.038216,9.061018,15.077057,0.081993,0.077020,0.695466,7.352000,2448.138175

3.617225,1.586834,9.123288,15.077057,0.061475,0.115391,0.490290,7.336000,2448.138175

2.580182,6.499020,8.931686,15.071175,-0.049906,0.224374,0.369582,7.344000,2448.138175

1.028209,5.457186,8.845466,15.068233,-0.039514,0.259814,0.165738,7.344000,2448.138175

-0.437543,4.357872,7.451564,15.079998,-0.039780,0.248889,-0.001067,7.348000,2448.138175

-0.571664,4.501573,9.384345,15.062351,-0.190865,0.229437,-0.168672,7.364000,2448.138175

0.812657,6.594820,10.047766,15.074116,-0.195661,0.156160,0.009858,7.376000,2448.138175

1.322797,2.985526,8.114985,15.088821,-0.048574,0.159890,0.390633,7.388000,2448.138175

1.545533,6.180482,6.958190,15.071175,0.169659,0.122319,0.608066,7.380000,2448.138175

-1.153654,4.846456,7.899433,15.068233,-0.029388,0.017866,0.788728,7.404000,2448.138175

0.276173,4.161480,10.138777,15.082939,-0.066693,0.002677,1.042133,7.420000,2448.138175

3.442389,1.979617,8.462263,15.094706,0.216290,0.169483,1.372280,7.424000,2448.138175

4.151315,13.633782,5.957072,15.091763,0.508067,0.392778,1.421309,7.440000,2448.138175

-6.180799,2.923255,9.817844,15.085880,-0.656907,0.538800,1.704293,7.440000,2448.138175

-1.771569,4.820111,11.475198,15.079998,0.076930,0.310442,1.582253,7.432000,2448.138175

-3.445687,1.948482,8.867022,15.074116,0.140615,0.236631,1.480731,7.444000,2448.138175

-2.039811,2.262230,9.899275,15.103529,0.079328,0.243826,1.426639,7.456000,2448.138175

-1.572782,2.626273,9.801079,15.085880,0.169126,0.268607,1.411451,7.460000,2448.138175

-2.178722,2.389166,10.615385,15.079998,0.052949,0.198527,1.370415,7.460000,2448.138175

-2.291288,1.958062,10.409413,15.088821,0.212560,0.252086,1.288078,7.468000,2448.138175

-2.178722,2.051468,10.795012,15.062351,0.274645,0.211584,0.999766,7.464000,2448.138175

-1.560807,1.265902,9.116103,15.068233,0.339929,0.106598,0.971787,7.468000,2448.138175

-1.316515,-1.679972,7.906618,15.079998,0.284505,-0.055145,0.874262,7.464000,2448.138175

-0.732130,3.337594,11.987732,15.091763,-0.259345,0.136442,0.759950,7.460000,2448.138175

2.204164,-0.156740,10.857283,15.085880,0.381497,0.163621,0.687738,7.452000,2448.138175

1.399437,-2.367343,9.734018,15.088821,-0.019263,0.045311,0.632314,7.440000,2448.138175

5.679337,-3.143329,9.743598,15.071175,-0.007005,-0.094848,0.396228,7.440000,2448.138175

7.008573,5.370965,9.041858,15.079998,0.403347,0.197994,0.285913,7.428000,2448.138175

3.044816,-0.860876,6.270820,15.091763,0.292232,0.340818,-0.044234,7.420000,2448.138175

2.218534,1.637130,7.940148,15.068233,0.061742,0.371461,-0.390635,7.424000,2448.138175

2.386185,4.642879,9.032277,15.071175,0.120897,0.400506,-0.572896,7.424000,2448.138175

1.758690,7.083404,7.834767,15.085880,0.279175,0.314971,-0.453521,7.440000,2448.138175

-1.029113,2.063443,8.593988,15.068233,0.008449,0.195596,-0.140960,7.424000,2448.138175

0.750387,1.986803,9.839399,15.082939,0.027901,0.067694,0.045564,7.436000,2448.138175

1.159935,5.806859,8.615544,15.077057,0.127825,0.092209,0.276853,7.436000,14.024175

1.552718,2.152059,8.289822,15.074116,0.035895,0.019997,0.449254,7.428000,14.024175

2.568207,5.576937,8.593988,15.082939,0.146743,0.202258,0.628850,7.436000,14.024175

0.882113,5.265584,8.179650,15.077057,0.209096,0.333890,0.699729,7.444000,14.024175

0.460589,3.052586,8.744875,15.079998,0.007916,0.276068,0.696798,7.464000,14.024175

1.557508,5.744588,8.388017,15.062351,0.070802,0.341618,0.681343,7.464000,14.024175

-1.033903,5.308695,8.993958,15.091763,0.080661,0.431682,0.622455,7.476000,14.024175

-1.033903,3.603441,9.825029,15.079998,0.087855,0.240362,0.484960,7.480000,14.024175

-2.909203,1.627550,11.046489,15.082939,0.099580,0.273936,0.347199,7.476000,14.024175

-0.696205,1.658685,8.737690,15.088821,0.009782,0.166818,0.110581,7.476000,14.024175

2.295175,1.067115,10.395043,15.094706,-0.137039,0.245958,-0.022384,7.480000,14.024175

4.124969,1.759276,13.046330,15.082939,-0.019263,0.306178,-0.103389,7.472000,14.024175

3.140616,-0.393847,9.573552,15.082939,0.025503,0.331492,0.039435,7.480000,14.024175

5.576351,2.049073,10.205837,15.085880,-0.022460,0.249155,0.158810,7.472000,14.024175

4.752465,2.290970,8.696975,15.091763,0.095849,0.314705,0.301901,7.460000,14.024175

3.164567,-0.829740,11.044094,15.082939,-0.169281,0.380255,0.380241,7.448000,14.024175

0.997074,-1.411730,9.877720,15.091763,0.230413,0.525477,0.607800,7.444000,14.024175

0.577946,-0.116025,8.802356,15.097647,0.251197,0.340552,0.640042,7.420000,14.024175

-1.227899,-0.051359,9.633428,15.091763,0.072933,0.374659,0.518535,7.416000,14.024175

-0.243546,2.717283,10.304033,15.082939,-0.021661,0.354141,0.398094,7.416000,14.024175

2.412530,3.701637,9.314890,15.091763,0.060942,0.563048,0.160409,7.408000,14.024175

0.012721,4.218961,9.271779,15.091763,0.005785,0.596622,-0.112182,7.408000,14.024175

-0.691415,4.990157,8.883786,15.112352,0.065472,0.554788,-0.410620,7.404000,14.024175

0.166002,4.714730,8.673024,15.079998,-0.078950,0.502828,-0.495089,7.416000,14.024175

2.105968,5.172179,7.875483,15.100588,0.060942,0.472984,-0.520935,7.424000,14.024175

1.571879,5.368570,8.306586,15.077057,0.156336,0.516684,-0.523600,7.428000,14.024175

-2.391879,5.363780,8.476633,15.088821,-0.128246,0.611544,-0.236087,7.444000,14.024175

-1.508116,5.972115,7.384504,15.085880,0.046820,0.412497,0.090862,7.452000,14.024175

-1.009952,5.562567,7.015671,15.079998,-0.159955,0.410365,0.268060,7.456000,14.024175

-1.544042,5.057218,9.405901,15.074116,-0.092806,0.432748,0.396495,7.464000,14.024175

-1.424291,5.976905,8.217971,15.091763,0.041491,0.495899,0.210771,7.460000,14.024175

-2.722391,8.082128,9.286150,15.077057,-0.141835,0.478846,-0.123906,7.476000,14.024175

-1.251849,1.182076,9.417875,15.074116,-0.084812,0.271272,-0.558507,7.476000,14.024175

-1.124913,0.727022,8.649075,15.071175,-0.155159,0.281930,-0.858810,7.484000,15.324335

-2.437384,3.751932,9.882509,15.091763,0.036694,0.292322,-0.827900,7.480000,15.324335

-4.427645,2.434671,10.256132,15.085880,-0.161287,0.235566,-0.879594,7.484000,15.324335

-2.806217,0.382139,10.421389,15.082939,0.028434,0.064230,-0.875331,7.484000,15.324335

-2.238597,-0.252541,10.399834,15.074116,-0.078151,-0.046085,-0.869468,7.492000,15.324335

-0.993187,0.159403,10.905183,15.094706,-0.046442,-0.096180,-0.847352,7.484000,15.324335

-1.855394,-1.828464,10.687236,15.079998,-0.006473,-0.153470,-0.764216,7.476000,15.324335

-2.415829,-1.873969,10.181887,15.085880,0.069736,-0.204630,-0.715986,7.468000,15.324335

1.658099,-2.372133,12.454761,15.103529,-0.037116,-0.508131,-0.701064,7.456000,15.324335

0.975519,1.558094,9.856164,15.103529,0.025237,-0.123359,-0.480433,7.436000,15.324335

1.514398,2.405931,7.231222,15.091763,0.248266,-0.209160,-0.503082,7.432000,15.324335

-1.266220,2.482572,7.719806,15.100588,0.007384,-0.143877,-0.448724,7.428000,15.324335

-1.833839,2.176009,8.481422,15.100588,0.032964,-0.231543,-0.471640,7.436000,15.324335

-3.620524,1.962852,10.632151,15.094706,0.134220,-0.159598,-0.563037,7.428000,15.324335

-4.858749,1.864656,8.761641,15.106470,0.222152,-0.301090,-0.697867,7.432000,15.324335

-4.607272,4.202196,8.395202,15.074116,0.059877,-0.369038,-0.655233,7.444000,15.324335

-3.290011,3.110067,8.423943,15.085880,0.080661,-0.480153,-0.552378,7.440000,15.324335

-2.487679,3.488480,9.942385,15.088821,0.197904,-0.508664,-0.438332,7.456000,15.324335

-2.559530,5.461976,8.385622,15.097647,0.221619,-0.595797,-0.203312,7.456000,15.324335

-1.115333,5.035663,8.261081,15.106470,0.172057,-0.596064,0.152682,7.468000,15.324335

-2.200277,5.390125,7.940148,15.103529,0.105975,-0.560624,0.398360,7.468000,15.324335

-0.693810,7.914476,5.710385,15.091763,0.147809,-0.566220,0.553974,7.472000,15.324335

1.907181,6.561290,6.060058,15.109411,-0.101866,-0.652820,0.699729,7.484000,15.324335

0.726437,4.286021,10.773457,15.106470,-0.029388,-0.391421,0.820703,7.484000,15.324335

1.028209,2.247860,10.095666,15.091763,0.180051,-0.332532,0.694666,7.492000,15.324335

1.581459,2.671778,9.796288,15.097647,-0.159955,-0.229411,1.005628,7.500000,15.324335

3.315453,3.078931,12.756533,15.097647,-0.082947,-0.131886,1.194550,7.492000,15.324335

4.946461,0.111502,10.732741,15.103529,-0.034185,-0.050349,1.259833,7.500000,15.324335

2.934645,-1.869179,10.821357,15.091763,-0.022194,0.199060,1.236651,7.492000,15.324335

1.679655,-0.829740,10.100456,15.091763,-0.115456,0.308310,1.054391,7.492000,15.324335

2.280804,0.149823,8.696975,15.112352,-0.114656,0.371461,0.976317,7.476000,15.324335

-0.408803,1.210816,7.889853,15.106470,0.121163,0.618739,0.953668,7.468000,15.324335

-2.664911,-0.207035,11.424902,15.097647,0.058011,0.331492,0.813242,7.464000,15.324335

-1.330885,1.342542,9.803473,15.088821,-0.014466,0.375192,0.508409,7.464000,15.324335

-0.964447,2.017938,8.311377,15.100588,0.087322,0.440475,0.326948,7.472000,15.324335

-0.353717,3.423814,6.912685,15.094706,-0.086678,0.418625,0.277120,7.464000,15.324335

0.170792,0.712652,11.666799,15.088821,-0.029122,0.395443,0.271524,7.464000,15.324335

0.489330,4.175850,10.114826,15.106470,0.154204,0.443140,0.149218,7.468000,15.324335

-0.195646,2.568792,8.155700,15.106470,-0.017397,0.430350,0.053291,7.468000,15.324335

1.919157,9.085641,5.092470,15.094706,0.160067,0.480445,0.021049,7.480000,15.324335

2.417320,3.818992,2.865102,15.109411,-0.127180,0.400506,0.063950,7.476000,15.324335

-1.057853,-2.029645,13.956438,15.097647,-0.490368,0.583033,0.164406,7.484000,15.324335

-0.241151,5.473951,13.410374,15.082939,0.158734,0.820184,0.082602,7.484000,15.324335

-3.474427,6.590030,6.019342,15.088821,0.022305,0.556386,-0.192654,7.488000,15.324335

-1.247059,3.050191,7.228827,15.109411,-0.206053,0.364800,-0.216635,7.500000,15.324335

-0.152535,3.150782,10.802197,15.085880,0.011380,0.672564,-0.039704,7.500000,15.324335

-1.179999,3.256163,16.286791,15.103529,0.348988,0.634460,-0.347735,7.504000,15.324335

-10.290653,-1.121933,9.815449,15.100588,-0.011802,0.035452,-1.352032,7.516000,15.324335

3.030446,4.719520,3.418351,15.097647,0.339396,0.103400,-1.465279,7.512000,15.324335

-3.206185,1.426368,1.121528,15.112352,-0.265474,-0.314413,-1.525499,7.500000,15.324335

-2.715206,-9.420675,24.092161,15.094706,-0.818917,-0.018640,-1.384540,7.492000,15.324335

1.068924,-5.114430,14.837805,15.121176,0.689261,0.151363,-1.637946,7.508000,15.324335

-10.388849,7.116935,9.401111,15.094706,0.908293,0.194264,-1.702697,7.504000,15.324335

-6.717284,-3.440312,6.989326,15.115294,-0.114923,-1.315779,-1.564935,7.488000,15.324335

-1.124913,-10.254142,12.236814,15.115294,-0.401903,-0.855598,-1.473805,7.464000,15.324335

4.956041,-0.880036,12.069162,15.094706,0.730296,-0.275243,-1.455686,7.472000,15.324335

3.439994,11.490240,8.486213,15.112352,1.072967,-0.111102,-1.013625,7.472000,15.324335

-5.395233,2.477782,7.140212,15.112352,0.107573,-0.850002,-0.263533,7.472000,15.324335

-3.721115,0.928204,9.156818,15.112352,-0.008604,-0.464165,0.090063,7.460000,15.324335

-2.645751,5.169784,9.496911,15.094706,0.321809,-0.527050,0.134562,7.468000,15.324335

1.550323,2.262230,7.820397,15.082939,0.283705,-0.749546,0.330412,7.476000,15.324335

-2.073341,4.125555,9.602292,15.091763,0.400949,-0.492410,0.522798,7.488000,15.324335

-1.019533,10.745389,9.326865,15.091763,0.374302,-0.530514,0.434332,7.476000,8.316493

3.095111,1.115016,6.539062,15.074116,0.101978,-0.437785,0.257934,7.468000,8.316493

-2.209857,-0.961466,8.550879,15.091763,-0.004074,-0.607522,-0.126571,7.460000,8.316493

-2.722391,6.841507,8.809541,15.088821,0.461702,-0.380229,-0.129769,7.472000,8.316493

1.322797,3.854918,9.645403,15.091763,-0.131443,-0.666410,0.009058,7.488000,8.316493

1.449733,4.963812,10.294453,15.103529,0.121163,-0.519323,0.291509,7.488000,8.316493

-1.522487,7.610309,6.998906,15.103529,0.874719,-0.376232,0.432467,7.496000,8.316493

4.785995,5.198524,9.231064,15.085880,-0.204987,-0.900364,0.670418,7.504000,8.316493

2.407740,-1.572196,7.774892,15.097647,0.232544,-0.540640,1.186556,7.500000,8.316493

0.017511,4.645274,8.342512,15.097647,0.115301,-0.199035,1.403190,7.508000,8.316493

2.704723,4.046519,10.224998,15.097647,-0.203921,-0.197436,1.434899,7.508000,8.316493

5.624252,2.453831,10.292058,15.097647,0.199503,-0.172388,1.376810,7.500000,8.316493

2.740648,-2.937358,10.371094,15.106470,-0.078151,0.045578,1.515104,7.496000,8.316493

2.467616,-1.507531,10.979428,15.115294,0.022305,0.210252,1.425839,7.488000,8.316493

4.304596,-1.957795,9.551997,15.085880,0.096116,0.370662,1.273689,7.480000,8.316493

2.620897,1.771251,8.205996,15.121176,0.172324,0.472717,1.223594,7.476000,8.316493

-0.047155,0.473150,9.959150,15.103529,0.089987,0.477247,1.060519,7.472000,8.316493

-2.693651,-0.932726,9.860954,15.115294,-0.004607,0.464990,0.795656,7.464000,8.316493

-1.984725,2.489757,9.089758,15.112352,0.187512,0.425553,0.659493,7.468000,8.316493

-0.681835,2.748419,8.414362,15.103529,0.254394,0.345881,0.580620,7.472000,8.316493

-1.795519,5.727823,9.190349,15.118235,0.007117,0.434613,0.523331,7.468000,8.316493

0.609081,4.717125,9.329260,15.115294,0.071601,0.362135,0.502547,7.468000,8.316493

-0.554899,4.012989,7.010880,15.103529,-0.041912,0.416760,0.537986,7.476000,8.316493

1.143170,3.241793,7.782077,15.127058,0.038027,0.417027,0.490290,7.476000,8.316493

1.876046,2.659803,9.293335,15.121176,0.037760,0.399174,0.492155,7.480000,8.316493

1.686840,5.009317,8.565248,15.138823,-0.024858,0.539866,0.428737,7.488000,8.316493

0.154027,4.937467,10.184282,15.094706,-0.060298,0.658975,0.407153,7.496000,8.316493

0.192347,4.063285,9.856164,15.115294,0.072134,0.673364,0.297637,7.500000,8.316493

0.333654,4.580609,8.682605,15.112352,0.174722,0.668034,0.076473,7.504000,8.316493

-0.885411,4.616534,8.914922,15.115294,0.022039,0.690684,-0.019986,7.512000,8.316493

-0.966842,5.881104,8.423943,15.129999,0.057745,0.622469,-0.054626,7.508000,8.316493

-2.411039,3.802227,8.081454,15.112352,0.051883,0.712534,-0.105787,7.520000,16.825100

-4.274364,3.502850,9.844189,15.118235,-0.127713,0.561183,-0.351732,7.520000,16.825100

-2.894833,0.968919,9.611873,15.109411,0.084658,0.347213,-0.434335,7.516000,16.825100

-3.024164,-2.060781,10.342353,15.106470,-0.158623,0.207321,-0.600608,7.516000,16.825100

-1.972750,0.128267,10.404624,15.124117,-0.073888,0.124984,-0.618194,7.516000,16.825100

-2.691256,-1.090798,10.260922,15.109411,0.008716,0.062365,-0.592347,7.504000,16.825100

-2.099686,-3.622333,10.785432,15.141764,-0.149030,-0.126024,-0.579024,7.492000,16.825100

3.073556,1.785621,9.983100,15.109411,0.010048,-0.063405,-0.662694,7.476000,16.825100

0.067806,-2.111076,8.967612,15.103529,-0.002476,-0.044220,-0.534525,7.476000,16.825100

1.636544,2.621483,8.967612,15.109411,0.091053,0.045045,-0.437266,7.472000,16.825100

-0.739315,4.515944,8.641890,15.106470,-0.074420,0.107930,-0.423144,7.468000,16.825100

-1.699718,1.450318,10.047766,15.106470,-0.063495,-0.023169,-0.564902,7.456000,16.825100

-0.928522,0.607271,10.749507,15.115294,-0.051505,-0.043687,-0.743165,7.460000,16.825100

0.098942,5.821229,8.222761,15.115294,0.024704,-0.056211,-0.800721,7.472000,16.825100

-1.043483,4.324342,8.194020,15.124117,-0.044577,-0.021571,-0.885989,7.460000,16.825100

-3.009794,1.445528,8.895761,15.112352,-0.041646,-0.101509,-1.006164,7.476000,16.825100

-2.075736,3.629786,8.958032,15.103529,0.196572,-0.313081,-1.038406,7.484000,16.825100

-1.979935,5.505086,8.114985,15.109411,0.101978,-0.275776,-0.895049,7.492000,16.825100

-2.698441,3.445369,8.402388,15.112352,0.065206,-0.345323,-0.811380,7.484000,16.825100

-2.880463,3.651341,8.431128,15.124117,0.276777,-0.434321,-0.767946,7.500000,16.825100

-1.424291,6.704991,5.346342,15.115294,0.145411,-0.499871,-0.706127,7.504000,16.825100

-0.526159,7.212735,6.771379,15.112352,-0.021661,-0.588603,-0.576626,7.504000,16.825100

-0.375272,3.969878,6.615702,15.124117,0.212027,-0.540107,-0.390102,7.520000,16.825100

1.064134,4.111185,11.388977,15.112352,-0.158889,-0.541173,-0.258470,7.524000,16.825100

1.890416,8.139607,5.669670,15.109411,0.072134,-0.378364,0.043166,7.524000,16.825100

3.796852,0.006121,8.416758,15.127058,-0.224172,-0.318143,0.348265,7.520000,16.825100

4.156105,4.020175,14.698894,15.112352,-0.631061,-0.310949,0.625653,7.524000,16.825100

6.896007,-1.701528,19.924826,15.112352,0.258658,0.010938,0.600872,7.520000,16.825100

8.857528,-8.524938,17.639978,15.109411,0.073200,-0.075130,0.471371,7.528000,16.825100

1.282081,-1.426100,13.192427,15.121176,0.263720,0.525477,0.384770,7.520000,17.248954

-1.838629,-3.466657,5.252936,15.121176,0.197105,0.456463,0.466042,7.496000,17.248954

-2.648146,-4.065412,6.414521,15.109411,0.055613,0.177210,0.349864,7.468000,17.248954

-4.501891,2.147269,6.982141,15.097647,0.101178,0.609146,0.375178,7.468000,17.248954

0.424664,7.976747,10.850098,15.103529,0.149941,-0.406875,0.183591,7.468000,17.248954

-9.064404,-3.033159,6.476791,15.112352,-0.055768,0.365599,0.034106,7.468000,17.248954

-5.783226,3.359149,7.786867,15.109411,0.105708,-0.015442,-0.022384,7.468000,17.248954

3.463944,4.532709,10.677656,15.118235,-0.077884,0.005342,0.403156,7.476000,17.248954

0.886903,1.246742,7.513834,15.124117,-0.110393,0.198527,0.444991,7.476000,17.248954

-0.542924,3.876473,8.376042,15.112352,0.062008,0.187336,0.423674,7.480000,17.248954

1.485658,3.974669,7.973679,15.124117,0.215224,0.213982,0.439928,7.484000,17.248954

0.736017,1.886212,6.524692,15.115294,0.134753,0.310175,0.455649,7.492000,17.248954

-1.788334,6.247542,10.165122,15.115294,-0.265208,0.510288,0.432467,7.500000,17.248954

-2.775082,5.193734,9.149633,15.132940,0.065206,0.507624,0.110048,7.500000,17.248954

-0.904572,0.475545,6.194179,15.115294,0.064939,0.238497,-0.257138,7.516000,17.248954

-1.781149,12.886537,7.573710,15.132940,0.480621,0.577970,-0.404225,7.516000,17.248954

-5.098251,9.291613,8.514953,15.132940,-0.197526,0.271272,-0.459116,7.516000,17.248954

-7.071747,-2.259567,12.830778,15.112352,-0.511685,-0.092716,-0.731174,7.504000,17.248954

-6.475387,-3.425942,13.388818,15.115294,-0.453064,-0.174787,-0.698932,7.504000,17.248954

-4.990475,-1.644047,10.500424,15.129999,-0.149563,-0.338661,-0.581955,7.500000,17.248954

-3.869606,-2.987653,10.823752,15.124117,-0.044044,-0.572082,-0.503082,7.496000,17.248954

-2.080526,1.261111,8.189230,15.127058,0.179252,-0.463898,-0.389037,7.496000,17.248954

0.855768,-2.091916,6.665998,15.129999,-0.188999,-0.770863,-0.237419,7.484000,17.248954

5.324874,3.878868,8.682605,15.121176,0.049218,-0.304287,0.031441,7.488000,17.248954

6.321202,0.351004,9.575947,15.112352,0.253328,-0.334131,0.147885,7.488000,17.248954

1.581459,2.597533,10.129196,15.112352,0.020174,-0.222217,0.197980,7.484000,17.248954

0.546810,1.982013,9.017907,15.138823,0.152872,-0.234474,0.147619,7.484000,17.248954

-0.547714,2.870565,9.640613,15.124117,0.124094,-0.054878,0.047163,7.468000,17.248954

-1.450636,1.802386,11.566208,15.118235,-0.002742,-0.054346,-0.043968,7.480000,17.248954

-1.486561,2.324500,8.023974,15.127058,-0.072822,-0.120428,-0.080739,7.464000,17.248954

-2.365534,3.007081,8.558064,15.106470,-0.016865,-0.029831,-0.164942,7.472000,17.248954

-2.976264,3.682476,9.168794,15.112352,0.095583,-0.100710,-0.327750,7.480000,17.248954

-2.640961,2.492151,11.094389,15.132940,0.107040,-0.178251,-0.447925,7.480000,16.090270

-3.534303,3.260953,9.449011,15.124117,0.184848,-0.264052,-0.537989,7.500000,16.090270

-1.841024,6.578055,7.794052,15.127058,0.116367,-0.367439,-0.583021,7.496000,16.090270

-1.146469,4.573424,7.513834,15.124117,0.111304,-0.524652,-0.485496,7.508000,16.090270

-0.655490,4.084840,8.737690,15.129999,0.076664,-0.539574,-0.262733,7.508000,16.090270

-0.535739,7.136095,9.494516,15.112352,0.272514,-0.490811,0.034639,7.520000,16.090270

2.431691,5.088353,5.281676,15.115294,0.030299,-0.579010,0.148418,7.516000,16.090270

2.448456,3.347173,8.821516,15.141764,0.069203,-0.401813,0.355993,7.528000,16.090270

3.109481,3.162757,8.285031,15.132940,0.193374,-0.318143,0.552109,7.528000,16.090270

2.853214,4.709940,7.643166,15.150587,0.116367,-0.222483,0.718914,7.540000,16.090270

5.171593,5.126673,6.637258,15.121176,0.031099,-0.190774,0.848415,7.532000,16.090270

2.034117,0.281549,7.865902,15.132940,0.011114,0.048242,0.862538,7.528000,16.090270

0.031881,-1.270424,15.297648,15.121176,-0.319832,0.108729,0.664556,7.524000,16.090270

2.589762,-0.971047,12.962504,15.141764,0.228547,0.017333,0.705591,7.528000,16.090270

2.223324,-2.240407,7.159372,15.147646,0.382563,0.194797,0.832960,7.524000,16.090270

0.815052,1.194051,6.630073,15.127058,0.009515,0.336022,0.541184,7.516000,16.090270

-2.229017,-0.767470,11.973362,15.150587,-0.091741,0.431416,0.573160,7.504000,16.090270

0.920433,-0.116025,11.726674,15.138823,-0.206852,0.152429,0.539585,7.492000,16.090270

-0.463888,0.310289,7.283913,15.135881,0.029766,0.351210,0.404489,7.496000,16.090270

-1.797914,-0.436957,7.592870,15.138823,0.077730,0.284062,0.333343,7.484000,16.090270

-0.389642,2.499337,10.236973,15.141764,0.133154,0.288325,0.366918,7.488000,16.090270

-2.406249,3.574700,8.560458,15.135881,-0.196194,0.426086,0.288311,7.484000,16.090270

-2.320028,5.929005,5.616979,15.129999,0.043356,0.337354,0.192385,7.496000,16.090270

0.007931,4.868011,6.335485,15.124117,-0.159156,0.178276,0.313092,7.496000,16.090270

0.273778,-3.040344,15.197058,15.129999,-0.065361,0.336288,0.370382,7.500000,16.090270

-0.964447,6.915753,3.815924,15.132940,-0.050972,0.410898,0.425006,7.512000,16.090270

1.598224,2.180799,7.231222,15.129999,-0.195394,0.434613,0.177996,7.516000,16.090270

-1.048273,4.001014,12.780483,15.135881,0.116900,0.678959,0.101521,7.524000,16.090270

-1.829049,5.572147,8.771220,15.132940,-0.038182,0.472717,0.035172,7.528000,16.090270

-4.303104,3.349569,5.906776,15.129999,0.100112,0.401039,-0.228360,7.528000,17.590528

-3.735485,1.828731,7.489884,15.124117,-0.167149,0.270739,-0.389303,7.524000,17.590528

-6.882540,-0.266911,11.479987,15.138823,-0.231633,0.391713,-0.297906,7.524000,17.590528

-4.621642,-1.277609,13.154106,15.127058,-0.127979,0.244092,-0.314427,7.524000,17.590528

-2.329608,-0.314811,9.020303,15.118235,0.225883,0.247823,-0.596877,7.528000,17.590528

2.072438,-0.702804,10.042975,15.127058,0.132354,-0.082591,-0.520669,7.516000,17.590528

-2.061366,-5.550324,10.356724,15.135881,-0.199125,-0.014376,-0.478302,7.508000,17.590528

0.530045,-3.322956,9.252620,15.141764,-0.028056,-0.009580,-0.653367,7.500000,17.590528

2.204164,2.868170,9.444221,15.135881,0.224018,0.338953,-0.622191,7.492000,17.590528

-0.243546,2.746024,4.948769,15.132940,0.502471,0.094074,-0.618994,7.496000,17.590528

-5.126991,3.248978,11.650034,15.129999,-0.696877,0.123118,-0.604605,7.484000,17.590528

-0.327372,0.255203,12.203283,15.115294,-0.215646,-0.291497,-0.901710,7.464000,17.590528

0.599501,-2.240407,7.468329,15.129999,0.038027,-0.189975,-1.022151,7.464000,17.590528

-3.340307,2.827454,6.845624,15.138823,-0.019263,0.017599,-0.798856,7.468000,17.590528

-3.898346,2.925650,7.113866,15.132940,0.099846,0.002411,-0.643508,7.476000,17.590528

-3.495983,3.727982,10.031001,15.141764,0.028967,-0.235007,-0.700265,7.488000,17.590528

-1.079408,2.554422,10.562695,15.135881,-0.031254,-0.468695,-0.731974,7.476000,17.590528

-0.871041,4.853641,8.483818,15.138823,0.232011,-0.309350,-0.541187,7.488000,17.590528

-0.909362,5.948165,6.790539,15.150587,0.183249,-0.402346,-0.386105,7.508000,17.590528

-1.618287,1.730535,12.761323,15.144705,0.023904,-0.454572,-0.388237,7.508000,17.590528

0.925223,3.981854,11.125525,15.144705,0.390823,-0.391687,-0.482032,7.516000,17.590528

0.072596,7.076219,7.554550,15.138823,0.452642,-0.260588,-0.432204,7.524000,17.590528

-2.909203,4.453673,7.154582,15.141764,-0.185269,-0.591534,-0.280053,7.524000,17.590528

-2.420619,2.676568,11.693144,15.135881,0.220820,-0.434588,-0.351998,7.532000,17.590528

1.092875,3.100487,6.859994,15.141764,0.279708,-0.479886,-0.392767,7.528000,17.590528

-0.818351,4.927886,9.592712,15.121176,-0.223373,-0.393286,-0.071413,7.532000,17.590528

1.021024,4.329132,10.122011,15.129999,-0.089342,-0.350385,0.150550,7.528000,17.590528

3.660336,-0.460907,12.955319,15.129999,0.141681,-0.219819,0.026378,7.540000,17.590528

3.569325,3.282508,11.192585,15.115294,-0.249486,-0.257390,0.048228,7.524000,17.590528

2.848424,-2.446379,11.024934,15.124117,0.253861,-0.032496,0.051959,7.520000,17.590528

2.915485,-3.205600,9.741203,15.132940,0.177653,-0.080192,0.072743,7.528000,17.590528

-1.730853,2.865775,5.839716,15.127058,-0.069624,0.134576,0.061285,7.516000,17.590528

1.658099,1.708980,9.137658,15.129999,0.172590,0.004276,0.111114,7.504000,17.590528

-0.923732,-0.408217,11.005774,15.135881,-0.053636,-0.183580,0.222495,7.496000,17.590528

-1.376390,2.504127,8.419152,15.144705,0.236808,-0.067136,0.049561,7.492000,17.590528

-0.942892,3.507640,8.162886,15.129999,-0.041912,-0.282171,0.171334,7.492000,17.590528

-0.016019,1.862262,9.439431,15.144705,-0.319566,-0.276309,0.638976,7.492000,17.590528

0.779127,3.902818,7.624006,15.129999,0.074799,-0.116698,1.030676,7.496000,17.590528

0.793497,4.309972,8.064690,15.132940,0.101978,-0.062606,1.293141,7.500000,17.590528

1.435363,2.228699,9.949570,15.135881,-0.133842,-0.082058,1.474869,7.496000,17.590528

-0.794401,2.722074,10.797407,15.150587,0.016710,0.137774,1.501515,7.504000,17.590528

-2.030231,5.567357,9.331655,15.162352,0.200302,0.375458,1.406388,7.512000,17.590528

-2.502050,3.584280,8.450288,15.159410,0.043622,0.222242,1.267827,7.524000,17.590528

-2.229017,2.207144,8.811935,15.132940,-0.066160,0.354408,1.216933,7.524000,17.590528

-2.710416,6.278678,9.628637,15.171175,-0.100800,0.529740,1.187622,7.528000,17.590528

-1.203949,9.193417,6.785749,15.138823,0.284505,0.481777,0.904106,7.536000,17.590528

-3.728300,1.510194,11.113549,15.150587,0.068403,0.058635,0.529726,7.540000,17.590528

-4.281549,1.661080,8.433522,15.147646,-0.096004,0.143636,0.274189,7.544000,17.590528

-4.008517,1.057535,10.332773,15.135881,0.092918,0.159624,0.172933,7.544000,17.590528

-5.206027,-1.421310,11.115945,15.135881,-0.247888,0.071425,0.162274,7.540000,17.590528

-3.484008,0.937784,8.143725,15.141764,-0.183404,0.051440,0.049028,7.532000,17.590528

-3.251691,-3.845070,16.449652,15.132940,-0.450133,-0.092983,0.033040,7.520000,17.590528

2.053277,0.463570,11.101574,15.147646,0.625310,-0.303488,0.040235,7.524000,17.590528

0.266593,-2.810422,6.876760,15.147646,-0.242292,-0.099111,0.253404,7.520000,17.590528

2.572997,-1.184203,7.942543,15.162352,0.113436,-0.006649,0.303766,7.516000,17.590528

3.104691,-0.868061,11.216536,15.132940,-0.145832,0.211318,0.168936,7.508000,17.590528

-0.986002,2.590347,11.329102,15.135881,-0.053103,0.247024,0.063683,7.488000,17.590528

-0.892597,0.786898,9.238249,15.138823,0.078263,0.039449,-0.085003,7.480000,17.590528

-0.705785,-1.387780,9.190349,15.138823,-0.005140,0.083149,-0.224363,7.488000,17.590528

-1.314120,4.271651,8.593988,15.135881,0.035096,0.103400,-0.243015,7.476000,17.590528

-0.257916,6.168507,7.358159,15.124117,0.147010,-0.043154,-0.293909,7.484000,17.590528

-2.784662,-0.077704,8.986773,15.156469,-0.125581,-0.078327,-0.433536,7.496000,8.523318

-2.343978,6.606795,9.904064,15.129999,-0.026990,-0.065271,-0.501217,7.496000,8.523318

0.616266,9.179047,4.342829,15.141764,-0.017131,-0.189709,-0.510010,7.496000,8.523318

0.379159,-0.997392,12.253579,15.147646,0.009782,-0.117231,-0.384507,7.508000,8.523318

-3.771410,1.898187,12.655942,15.153528,0.091053,-0.119629,-0.222497,7.516000,8.523318

-0.008834,8.316839,5.928332,15.153528,0.852336,-0.246731,-0.079940,7.536000,8.523318

-6.743629,9.993353,3.899750,15.153528,0.220021,-0.125491,0.202510,7.536000,8.523318

-0.305817,-1.394965,12.045212,15.150587,-0.706203,-0.666143,0.289643,7.536000,8.523318

6.093676,6.635536,11.693144,15.171175,0.138217,-0.015442,0.628317,7.540000,8.523318

5.116508,-2.424824,7.034831,15.144705,-0.104264,-0.032762,0.728241,7.536000,8.523318

-1.381181,4.865616,9.659773,15.156469,-0.112258,0.317903,0.630715,7.532000,8.523318

5.181173,-0.398637,9.607082,15.141764,0.050817,0.005342,0.417545,7.536000,8.523318

2.647242,-0.975837,9.741203,15.141764,-0.095737,0.318435,0.565166,7.520000,8.523318

-0.432753,-3.143329,9.393926,15.159410,0.051883,0.389581,0.363187,7.516000,8.523318

-3.457662,1.335357,7.710226,15.147646,0.203233,0.388249,0.179328,7.512000,8.523318

-1.412316,0.250413,9.999866,15.159410,-0.037915,0.148699,0.035172,7.504000,8.523318

-0.176486,-1.133908,8.138935,15.150587,-0.029921,0.126316,0.115643,7.512000,8.523318

0.398319,4.877591,9.240644,15.150587,0.531782,0.362402,0.251273,7.512000,8.523318

-1.625473,10.707068,10.203442,15.135881,-0.014200,0.186537,0.237150,7.504000,8.523318

1.694025,-4.091757,11.901511,15.153528,-0.478378,-0.024502,0.336008,7.504000,8.523318

-1.053063,-1.253659,6.400151,15.156469,-0.018463,0.323232,0.530792,7.504000,8.523318

-1.836234,5.802069,9.769943,15.141764,-0.085079,0.368264,0.689071,7.488000,8.523318

1.114430,0.547396,9.056228,15.159410,-0.139970,0.198527,0.552642,7.492000,8.523318

0.645006,4.410563,8.776011,15.127058,0.361246,0.485241,0.459913,7.516000,8.523318

-1.362020,7.854601,8.651469,15.138823,0.051616,0.464990,0.707190,7.512000,8.523318

-2.171537,3.009476,6.040898,15.153528,-0.029388,0.433281,0.825766,7.516000,8.523318

-4.176168,4.381822,7.959308,15.153528,0.077996,0.393578,0.750091,7.532000,8.523318

-1.836234,5.490716,8.541298,15.141764,0.006584,0.513220,0.609398,7.532000,8.523318

-2.473310,4.458463,8.222761,15.162352,-0.013134,0.561183,0.543316,7.548000,8.523318

-3.510353,1.251532,10.984219,15.174116,-0.185269,0.526276,0.390100,7.544000,17.381765

-2.878068,3.735167,9.916039,15.159410,-0.021927,0.480978,0.173466,7.552000,17.381765

-2.731972,1.804781,10.706396,15.150587,-0.137572,0.434880,0.106850,7.552000,17.381765

-0.729735,2.743629,7.808422,15.162352,0.146477,0.357872,0.070878,7.552000,17.381765

-2.063761,1.924532,11.975757,15.150587,0.051083,0.178809,0.133763,7.544000,17.381765

-3.184630,0.281549,11.417717,15.159410,-0.182871,0.023994,0.011457,7.536000,17.381765

1.967057,0.717442,8.105405,15.150587,0.139815,0.286726,-0.261135,7.540000,17.381765

4.946461,2.087393,8.198811,15.171175,-0.014200,0.213982,-0.369585,7.528000,17.381765

2.738253,0.061207,9.616662,15.150587,0.076930,0.316037,-0.491358,7.532000,17.381765

-0.813561,3.047796,9.041858,15.147646,-0.234298,0.340285,-1.152718,7.524000,17.381765

0.925223,1.934112,8.313771,15.156469,0.000455,0.241428,-1.457551,7.504000,17.381765

1.581459,-0.329181,9.741203,15.153528,-0.176742,0.226772,-1.579058,7.496000,17.381765

-2.085316,-1.081218,10.339958,15.153528,-0.055502,0.234233,-1.750926,7.500000,17.381765

-2.291288,0.736602,9.992681,15.156469,0.030566,0.213982,-2.073879,7.500000,17.381765

-3.062484,1.270692,9.829819,15.156469,0.086256,-0.029032,-2.328084,7.512000,17.381765

-0.760870,3.387889,10.490845,15.165293,0.103843,-0.078327,-2.397364,7.508000,17.381765

-2.990633,2.647828,11.046489,15.144705,0.101445,-0.073264,-2.590283,7.512000,17.381765

-1.898505,5.620048,7.669511,15.159410,0.397485,-0.173188,-2.561239,7.528000,17.381765

-0.794401,4.932677,9.863349,15.159410,0.240005,-0.463099,-2.324887,7.532000,17.381765

-1.124913,6.597215,10.804592,15.168234,0.576014,-0.489745,-1.985147,7.540000,17.381765

2.390975,7.021134,9.312495,15.162352,0.519791,-0.662413,-1.579857,7.556000,17.381765

1.368302,4.973392,9.094548,15.188822,0.479022,-0.585938,-1.013625,7.556000,17.381765

0.254618,5.160203,8.680209,15.179998,0.515794,-0.526517,-0.556908,7.564000,17.381765

-0.459098,4.106395,10.059741,15.156469,0.411074,-0.623776,-0.358660,7.564000,17.381765

1.979032,5.131464,8.390412,15.150587,0.373503,-0.538241,-0.209441,7.568000,17.381765

1.684445,1.445528,10.969849,15.156469,0.114235,-0.594998,-0.014390,7.560000,17.381765

0.465380,-2.551759,11.348262,15.177057,0.098780,-0.480419,-0.148154,7.552000,17.381765

0.405504,0.140242,9.475356,15.150587,0.421999,-0.365840,-0.234755,7.556000,17.381765

1.181490,1.107830,7.861113,15.138823,0.340462,-0.498805,-0.066883,7.548000,18.444878

1.320402,1.809571,9.458591,15.182940,0.219221,-0.526251,0.157212,7.540000,18.444878

0.726437,1.929322,10.926738,15.171175,0.314615,-0.318143,0.233953,7.540000,18.444878

-0.291447,-1.342275,9.860954,15.162352,-0.009937,-0.425794,0.316556,7.520000,18.444878

0.867743,-0.041779,10.390254,15.162352,0.093717,-0.300290,0.558770,7.516000,18.444878

0.774337,0.207303,9.872930,15.185881,0.180584,-0.217154,0.852146,7.500000,18.444878

-2.145192,1.522169,10.263317,15.174116,0.048419,-0.123892,0.996302,7.500000,18.444878

-3.414552,4.484808,7.635981,15.171175,0.205099,-0.043421,1.098357,7.508000,18.444878

0.918038,3.948323,8.043135,15.171175,-0.056567,-0.122826,1.506844,7.508000,18.444878

0.941988,4.568634,9.405901,15.168234,0.005518,0.011737,1.784231,7.520000,18.444878

0.084571,6.264307,9.446616,15.153528,0.097981,0.111128,1.700829,7.528000,18.444878

0.628241,4.975787,8.160490,15.171175,-0.026191,0.212650,1.540152,7.536000,18.444878

-2.755922,3.680081,7.221642,15.153528,-0.067492,0.360803,1.439163,7.536000,18.444878

-3.718719,5.526641,6.079218,15.165293,0.033230,0.390114,1.270492,7.544000,18.444878

-2.332003,5.562567,8.565248,15.153528,-0.203122,0.340552,1.168703,7.544000,18.444878

-3.996542,3.888448,11.082415,15.156469,-0.004341,0.374126,1.002697,7.556000,18.444878

-5.024005,3.160362,11.767390,15.162352,0.155537,0.331492,0.707457,7.552000,18.444878

-5.598810,0.791688,11.302756,15.159410,-0.036050,0.102601,0.470305,7.560000,18.444878

-6.159245,0.037257,11.127919,15.159410,-0.082148,0.048775,0.239548,7.556000,18.444878

-4.693492,1.483848,9.822634,15.174116,0.068936,-0.090318,0.092994,7.560000,18.444878

-4.243229,-1.603332,6.924660,15.156469,-0.099734,-0.208894,-0.058890,7.544000,18.444878

-1.817074,-0.451327,9.698093,15.165293,-0.173012,-0.249130,-0.125772,7.540000,18.444878

-1.685348,-0.899196,11.367421,15.153528,-0.028322,-0.174787,-0.077009,7.540000,18.444878

0.175582,0.846773,7.135422,15.153528,0.048152,-0.311748,0.018918,7.532000,18.444878

2.323915,-1.869179,10.395043,15.150587,-0.100001,-0.321341,0.113512,7.520000,18.444878

3.392094,1.723350,9.683722,15.138823,-0.004874,-0.164395,0.228623,7.512000,18.444878

0.987494,0.523446,11.527888,15.144705,0.023371,-0.059408,0.225159,7.516000,18.444878

1.155145,2.408326,9.501701,15.141764,0.015644,-0.048483,0.069812,7.512000,18.444878

1.801800,4.235726,7.990444,15.165293,0.094783,-0.059142,-0.083671,7.524000,18.444878

0.676141,5.754169,7.315048,15.171175,0.123561,-0.037825,-0.344004,7.520000,17.451252

-1.376390,5.655972,7.511440,15.177057,-0.009670,0.017599,-0.540121,7.520000,17.451252

-1.764384,5.897870,9.422666,15.168234,-0.082148,-0.128422,-0.580357,7.536000,17.451252

-1.304540,3.414234,10.260922,15.153528,-0.071756,-0.216888,-0.559839,7.540000,17.451252

0.680931,2.863380,11.499147,15.174116,-0.057100,-0.327203,-0.486828,7.536000,17.451252

1.741925,4.906332,7.899433,15.156469,0.096382,-0.302422,-0.352531,7.540000,17.451252

-0.459098,3.596256,7.853928,15.153528,0.014578,-0.349586,-0.177732,7.548000,17.451252

1.021024,3.162757,7.772497,15.174116,0.077996,-0.325871,0.019717,7.556000,17.451252

2.695143,5.373360,9.111313,15.171175,0.091586,-0.199035,0.244345,7.560000,17.451252

3.856727,1.555699,10.612990,15.153528,-0.153293,-0.144410,0.619257,7.560000,17.451252

3.325033,3.421419,11.250066,15.159410,0.126492,0.116190,0.852412,7.564000,17.451252

4.263881,-0.932726,9.504096,15.165293,-0.010736,-0.007981,0.903306,7.556000,17.451252

4.352496,0.310289,9.781919,15.165293,-0.070690,0.202524,0.967524,7.552000,17.451252

2.489171,3.083721,12.476315,15.168234,-0.013933,0.337887,0.872930,7.552000,17.451252

3.681891,-1.976955,9.089758,15.171175,0.121429,0.398374,0.817506,7.536000,17.451252

0.113312,-2.276332,9.499307,15.162352,0.018575,0.351743,0.784464,7.532000,17.451252

-0.423173,0.006121,9.786709,15.168234,0.024970,0.464990,0.773806,7.532000,17.451252

-1.462611,-0.760285,8.907737,15.182940,0.157402,0.485241,0.712519,7.520000,17.451252

-1.445846,4.199801,8.009604,15.159410,0.449711,0.620071,0.570228,7.536000,17.451252

-1.172814,8.462935,8.155700,15.147646,0.113169,0.394111,0.573160,7.528000,17.451252

0.805472,1.555699,9.444221,15.165293,-0.202322,0.253685,0.610464,7.532000,17.451252

-0.830326,2.147269,9.346025,15.159410,0.106774,0.540132,0.675748,7.528000,17.451252

0.683326,1.764066,9.065807,15.174116,0.072667,0.465789,0.556372,7.540000,17.451252

-0.142955,2.434671,8.064690,15.168234,-0.022727,0.586230,0.287245,7.532000,17.451252

0.254618,5.435631,8.562854,15.165293,0.028701,0.577703,0.155080,7.528000,17.451252

1.289266,3.016661,9.408296,15.179998,0.004452,0.601152,0.122571,7.540000,17.451252

0.767152,3.668106,8.172465,15.168234,0.014844,0.674962,-0.071946,7.544000,17.451252

-2.693651,7.195970,8.081454,15.177057,0.090786,0.803397,-0.324553,7.548000,17.451252

-3.917506,4.896751,8.086245,15.174116,0.000722,0.589961,-0.654433,7.552000,17.451252

-4.010912,2.410721,9.755573,15.168234,-0.183137,0.381587,-0.880393,7.556000,18.173517

-4.101923,2.461016,10.011841,15.165293,-0.132243,0.302981,-1.034409,7.564000,18.173517

-3.963012,3.280113,11.338681,15.179998,-0.078950,0.136974,-1.148721,7.564000,18.173517

-3.622919,-1.045292,10.888417,15.171175,-0.127713,0.121520,-1.186026,7.568000,18.173517

-3.091224,-0.116025,10.785432,15.191763,-0.082681,0.082616,-1.121009,7.572000,18.173517

-2.379904,-0.312416,11.482383,15.174116,-0.001676,-0.034627,-0.970191,7.564000,18.173517

-1.429081,-1.023737,10.397439,15.182940,-0.016598,-0.104174,-0.868136,7.556000,18.173517

-0.950077,-1.411730,10.040581,15.174116,-0.020062,-0.200900,-0.779404,7.552000,18.173517

-0.993187,-2.963703,9.844189,15.168234,0.005518,-0.236339,-0.724246,7.536000,18.173517

-0.554899,1.110225,10.759087,15.179998,0.154204,-0.333865,-0.679747,7.540000,18.173517

0.534835,3.617811,9.458591,15.182940,0.112103,-0.198768,-0.391168,7.528000,18.173517

1.076110,1.088670,8.991562,15.171175,0.113702,-0.262719,-0.285649,7.524000,18.173517

1.116825,2.326895,9.482541,15.179998,-0.037116,-0.228612,-0.262200,7.524000,18.173517

2.455641,3.351964,8.615544,15.171175,0.051883,-0.118297,-0.324819,7.520000,18.173517

0.956359,4.005804,8.706554,15.165293,0.100912,-0.042088,-0.391968,7.528000,18.173517

-0.260311,3.280113,8.766430,15.174116,0.007117,-0.081258,-0.644308,7.528000,18.173517

-1.177604,3.488480,8.876601,15.185881,0.121962,-0.017307,-1.005631,7.536000,18.173517

-1.685348,4.314762,8.740085,15.171175,0.024970,-0.018107,-1.177233,7.540000,18.173517

-2.545160,3.064561,9.939990,15.191763,0.073200,-0.072465,-1.313661,7.544000,18.173517

-2.082921,4.803346,8.440707,15.191763,0.112103,-0.197436,-1.403992,7.548000,18.173517

-2.051786,5.457186,9.020303,15.177057,0.089188,-0.272045,-1.302470,7.556000,18.173517

-1.309330,4.386612,10.584250,15.185881,0.147809,-0.333332,-1.029879,7.564000,18.173517

0.079781,4.602164,10.184282,15.179998,0.297295,-0.397283,-0.678681,7.564000,18.173517

1.066530,3.203472,9.908854,15.168234,0.168327,-0.475090,-0.264865,7.572000,18.173517

2.405345,3.213053,9.350815,15.185881,0.088921,-0.378364,0.122838,7.568000,18.173517

1.682050,2.302945,11.051279,15.177057,0.145678,-0.272578,0.385037,7.572000,18.173517

1.756295,-1.557826,10.778247,15.171175,-0.005940,-0.184912,0.464976,7.564000,18.173517

0.079781,0.489915,9.255014,15.185881,0.051083,-0.050349,0.424473,7.568000,18.173517

1.056949,0.679122,10.301638,15.191763,0.026569,-0.021304,0.347199,7.560000,18.173517

0.910853,-1.593752,8.481422,15.153528,-0.017664,0.098870,0.293640,7.556000,18.173517

-0.859066,0.269574,9.547207,15.174116,0.007384,0.087412,0.144155,7.548000,18.173517

-1.812284,1.184471,9.710068,15.165293,-0.082148,0.179608,-0.050363,7.540000,18.173517

-0.140560,0.937784,8.814330,15.153528,0.030033,0.126050,-0.030378,7.544000,18.173517

0.525255,1.632339,8.495793,15.174116,0.010315,0.172148,0.117509,7.540000,18.173517

1.044974,3.203472,8.608358,15.194704,-0.023260,0.242227,0.207573,7.544000,18.173517

0.891693,3.567515,8.210786,15.156469,-0.062430,0.299250,0.192385,7.536000,18.173517

0.654586,1.924532,8.402388,15.179998,-0.072822,0.365333,0.158277,7.540000,18.173517

-0.341742,2.377191,7.863508,15.182940,-0.029921,0.403171,0.055423,7.548000,18.173517

-0.988397,6.192457,8.340117,15.171175,0.060143,0.543596,-0.071680,7.552000,18.173517

-1.532067,2.698123,8.359277,15.162352,-0.044044,0.377857,-0.228893,7.552000,18.173517

-1.989516,2.219119,9.367580,15.174116,-0.158090,0.403703,-0.433802,7.556000,18.173517

-1.948800,5.069193,8.776011,15.174116,-0.031520,0.413563,-0.414350,7.560000,18.173517

-1.841024,4.077655,7.432404,15.185881,0.094250,0.361602,-0.450323,7.564000,18.173517

-5.402418,3.749537,10.050160,15.179998,-0.123716,0.310442,-0.529995,7.568000,18.173517

-5.950878,2.434671,10.624966,15.168234,0.014312,0.212383,-0.669622,7.572000,18.173517

-5.390443,0.219278,9.712463,15.185881,0.014312,0.033854,-0.817508,7.580000,18.173517

-5.972433,-0.642929,10.246552,15.206469,0.003120,-0.069267,-0.925425,7.580000,18.173517

-7.112462,-1.593752,11.913486,15.194704,0.025769,-0.106839,-1.027214,7.576000,18.173517

-6.681359,-2.911012,11.990127,15.179998,0.079062,-0.246731,-1.243049,7.572000,18.173517

-3.637289,-2.455959,9.075388,15.171175,0.154204,-0.417800,-1.361891,7.572000,18.173517

-1.967960,-1.854809,9.396320,15.179998,0.062541,-0.568085,-1.169239,7.556000,18.173517

1.049764,2.046678,11.259645,15.171175,0.295696,-0.459635,-1.165775,7.556000,18.173517

0.922828,0.798873,10.941108,15.179998,0.312483,-0.528649,-1.109818,7.552000,18.173517

-0.121400,0.815638,10.524375,15.168234,0.270915,-0.460701,-1.007762,7.556000,18.173517

-1.642238,2.092183,10.193862,15.171175,0.475025,-0.480153,-0.909438,7.552000,18.173517

-3.225345,1.773646,8.337722,15.177057,0.332201,-0.478554,-1.000568,7.544000,18.173517

-2.698441,2.032308,9.063413,15.177057,0.301558,-0.676269,-0.966194,7.540000,9.324832

-2.116452,3.636971,8.972402,15.171175,0.472361,-0.709577,-0.830298,7.548000,9.324832

-2.973868,3.342384,7.791657,15.179998,0.506201,-0.731693,-0.762617,7.556000,9.324832

-4.094738,3.675291,7.025251,15.174116,0.498207,-0.826820,-0.681612,7.556000,9.324832

-2.310448,5.109908,8.007209,15.191763,0.464633,-0.874251,-0.351732,7.564000,9.324832

-0.885411,4.412958,8.986773,15.182940,0.383895,-0.870254,-0.002399,7.560000,9.324832

-1.709298,7.073824,6.572592,15.168234,0.455041,-0.892370,0.486559,7.572000,9.324832

0.673746,5.931400,8.297007,15.179998,0.196305,-0.883044,0.924357,7.572000,9.324832

2.501146,4.753050,8.984377,15.200586,0.056679,-0.736756,1.150051,7.572000,9.324832

4.936881,3.524405,8.368856,15.182940,0.230946,-0.536909,1.365086,7.584000,9.324832

1.933527,2.973551,9.216694,15.182940,0.133420,-0.427926,1.552942,7.588000,9.324832

4.814735,2.255045,9.741203,15.182940,-0.022993,-0.311748,1.572127,7.576000,9.324832

3.689076,3.560330,11.942226,15.203527,0.033497,-0.127623,1.578256,7.580000,9.324832

1.121615,0.715047,12.042817,15.185881,-0.012868,-0.055145,1.516437,7.564000,9.324832

1.516793,-0.781840,11.393766,15.188822,0.134220,0.135642,1.220930,7.568000,9.324832

1.083295,-3.730109,9.745994,15.182940,0.063874,0.110595,1.011490,7.564000,9.324832

-0.875831,0.513866,10.653706,15.177057,0.197638,0.111927,0.974186,7.564000,9.324832

-0.760870,1.673055,8.924501,15.168234,0.065206,0.159890,0.852412,7.548000,9.324832

-2.389484,2.849010,7.085126,15.203527,0.076930,0.192132,0.816440,7.548000,9.324832

0.549205,3.265743,6.898314,15.200586,-0.026724,0.135376,0.819904,7.560000,9.324832

2.740648,3.704032,9.140054,15.182940,0.092385,0.296053,0.956066,7.556000,9.324832

2.458036,2.032308,9.975915,15.188822,0.098780,0.406368,1.203077,7.560000,9.324832

0.501305,3.100487,8.122169,15.194704,0.164596,0.552390,1.329913,7.572000,9.324832

-0.638724,3.050191,8.617939,15.177057,0.039359,0.600086,1.293941,7.568000,9.324832

-0.521369,2.741234,9.358000,15.185881,0.193907,0.723458,1.140458,7.576000,9.324832

-0.995582,6.427169,8.129354,15.197645,0.235742,0.797269,0.977383,7.576000,9.324832

-1.886530,4.511153,8.423943,15.191763,0.139815,0.705606,0.806314,7.576000,9.324832

-3.062484,4.278836,8.428732,15.203527,0.113702,0.686687,0.515071,7.584000,19.320773

-4.533026,5.641603,9.034673,15.191763,-0.005140,0.674696,0.086333,7.584000,19.320773

-5.797596,3.299273,9.441826,15.206469,0.118498,0.607014,-0.139628,7.588000,19.320773

-6.092184,3.198682,10.342353,15.188822,-0.070424,0.512953,-0.309631,7.596000,19.320773

-4.767738,0.540211,11.161449,15.200586,-0.001143,0.248622,-0.446060,7.592000,19.320773

-3.349886,-1.694342,11.460827,15.194704,-0.056834,0.118589,-0.490292,7.588000,19.320773

-2.391879,0.506680,10.074111,15.188822,0.025769,0.030656,-0.480700,7.580000,19.320773

-1.656608,-2.944543,10.397439,15.182940,-0.073088,-0.142278,-0.504681,7.572000,19.320773

0.616266,-1.572196,9.693303,15.177057,-0.070157,-0.307218,-0.490026,7.564000,19.320773

2.628082,0.968919,9.276569,15.194704,0.190710,-0.095914,-0.333879,7.560000,19.320773

0.290543,3.150782,8.423943,15.197645,0.020440,-0.069800,-0.303502,7.556000,19.320773

-0.780031,-0.343551,10.258528,15.218235,-0.139970,-0.146542,-0.282185,7.548000,19.320773

0.491725,-0.080099,8.981982,15.182940,0.022039,-0.202499,-0.270194,7.552000,19.320773

-0.665070,1.993988,9.595107,15.206469,0.084125,-0.074863,-0.292844,7.540000,19.320773

-1.637448,2.480176,10.402228,15.194704,-0.033119,-0.168125,-0.289913,7.536000,19.320773

-1.005162,1.931717,8.325747,15.197645,0.038027,-0.235007,-0.304568,7.536000,19.320773

-0.894992,2.504127,7.444379,15.194704,0.122762,-0.226747,-0.302703,7.548000,19.320773

-0.205226,2.822664,9.398716,15.185881,0.024970,-0.353050,-0.263266,7.544000,19.320773

1.284476,4.372242,8.009604,15.188822,0.101978,-0.329068,-0.200648,7.548000,19.320773

1.801800,6.978024,7.485095,15.182940,0.124094,-0.251528,-0.224896,7.560000,19.320773

2.465221,4.135135,8.737690,15.194704,-0.161021,-0.187843,-0.154816,7.556000,19.320773

3.054396,6.652301,10.284873,15.185881,0.004985,-0.134018,-0.034375,7.568000,19.320773

3.245997,4.836876,9.825029,15.185881,0.064140,-0.014909,0.109781,7.576000,19.320773

1.828146,4.786581,8.646679,15.188822,-0.002742,-0.050882,0.175331,7.572000,19.320773

2.206559,3.313643,8.706554,15.206469,0.025237,0.000279,0.244345,7.576000,19.320773

1.832936,2.295760,10.804592,15.203527,-0.008338,0.064230,0.260865,7.580000,19.320773

2.393370,-0.094469,11.695539,15.191763,-0.160488,0.107131,0.208372,7.580000,19.320773

0.228273,0.837193,9.865745,15.182940,-0.029388,0.188935,0.269392,7.568000,19.320773

1.519188,-0.377082,9.638218,15.182940,-0.074420,0.224374,0.321885,7.560000,19.320773

1.054554,-2.721806,9.604687,15.206469,0.041757,0.202791,0.415147,7.556000,19.320773

-0.154930,1.162916,9.619058,15.203527,0.094517,0.242494,0.431934,7.556000,19.320773

0.295333,1.732930,9.484936,15.188822,-0.080283,0.315771,0.315757,7.548000,19.320773

0.309703,1.524564,9.053833,15.206469,0.026036,0.411431,0.203310,7.548000,19.320773

-0.799191,2.604717,8.210786,15.185881,0.009782,0.394910,0.127634,7.544000,19.320773

-0.389642,3.081326,7.829977,15.188822,-0.029921,0.383186,0.166005,7.552000,19.320773

1.049764,4.513548,8.977192,15.200586,-0.082947,0.402371,0.166804,7.556000,19.320773

1.231786,2.801109,9.341235,15.191763,-0.077352,0.454598,0.154813,7.544000,19.320773

0.688116,1.814361,8.653864,15.200586,0.018308,0.482843,0.105784,7.552000,19.320773

0.381554,4.092025,7.904223,15.197645,-0.109594,0.559584,-0.029579,7.552000,19.320773

0.283358,5.282350,9.080178,15.200586,0.084125,0.595556,-0.126305,7.560000,19.320773

-0.866251,2.468201,9.216694,15.194704,-0.066427,0.509223,-0.307765,7.564000,19.320773

-3.112780,4.836876,8.325747,15.177057,-0.003275,0.500962,-0.503615,7.572000,19.320773

-2.482889,3.840548,8.330537,15.191763,-0.020062,0.463657,-0.712256,7.568000,19.320773

-4.303104,4.029754,10.505215,15.191763,-0.098935,0.385318,-0.820173,7.576000,19.320773

-5.682635,2.645433,11.199770,15.197645,-0.050972,0.189468,-0.860942,7.580000,19.320773

-4.925809,0.832403,11.642849,15.191763,0.041491,-0.114566,-0.938216,7.584000,19.320773

-4.875514,-0.386662,11.269226,15.212351,0.149142,-0.183846,-0.899046,7.576000,19.320773

-4.597692,-2.379318,11.015354,15.197645,0.059877,-0.454839,-0.802053,7.576000,19.320773

-3.000214,-2.259567,8.708950,15.197645,0.110238,-0.472159,-0.781536,7.564000,19.320773

-1.189579,-2.099101,8.941267,15.200586,0.066538,-0.515859,-0.644308,7.564000,19.320773

-1.165629,0.394115,9.161609,15.200586,0.187246,-0.532379,-0.489493,7.552000,19.320773

1.102455,2.822664,9.425060,15.209410,0.151273,-0.490278,-0.198516,7.540000,19.320773

3.715421,2.489757,8.905341,15.203527,0.164063,-0.389555,-0.114580,7.552000,19.320773

1.598224,2.995106,9.197534,15.191763,0.123028,-0.282970,-0.045566,7.544000,19.320773

-1.582362,2.698123,8.809541,15.194704,0.177387,-0.321607,-0.200381,7.544000,19.320773

-3.850446,2.144874,9.880115,15.203527,0.270116,-0.443647,-0.348801,7.556000,19.320773

-1.426686,2.908885,9.659773,15.200586,0.136351,-0.610186,-0.404758,7.548000,9.247984

-2.035021,3.543565,8.057505,15.194704,0.218688,-0.466563,-0.199848,7.544000,9.247984

-3.809730,4.101605,7.274333,15.203527,0.223218,-0.566220,0.005861,7.544000,9.247984

-3.354676,4.087235,8.675420,15.206469,0.143013,-0.731160,0.179328,7.556000,9.247984

-2.343978,4.096815,8.804750,15.200586,0.135019,-0.754076,0.346400,7.560000,9.247984

-1.465006,5.073983,7.556945,15.197645,0.173390,-0.653620,0.567830,7.568000,9.247984

-1.259035,3.215447,8.371252,15.194704,0.074266,-0.625908,0.754088,7.572000,9.247984

-1.201554,5.143438,9.348420,15.191763,0.096382,-0.572615,0.925423,7.572000,9.247984

0.973124,5.500297,8.998747,15.185881,0.099580,-0.518257,0.917163,7.576000,9.247984

2.443666,2.872960,8.785590,15.194704,0.020174,-0.494808,0.940345,7.580000,9.247984

2.893929,2.880145,9.056228,15.206469,0.108639,-0.317344,1.033607,7.588000,9.247984

3.368143,0.865933,9.683722,15.212351,0.049485,-0.210493,1.146587,7.580000,9.247984

2.841239,-1.301559,12.009287,15.200586,-0.149296,-0.097512,1.255836,7.584000,9.247984

2.489171,0.949759,12.335010,15.206469,0.026569,0.128448,1.270225,7.576000,9.247984

0.556390,-1.160253,11.216536,15.188822,0.215757,0.146834,1.155913,7.564000,9.247984

0.307308,-4.594711,10.320798,15.200586,-0.185802,0.015468,1.110614,7.560000,9.247984

0.712067,-1.466816,10.620175,15.188822,0.020440,0.227039,1.147120,7.560000,9.247984

-0.720155,0.434830,10.284873,15.177057,0.206165,0.372527,1.129000,7.544000,9.247984

-0.849486,1.891002,7.676696,15.185881,0.137950,0.280598,0.971254,7.540000,9.247984

-0.432753,1.740115,7.087521,15.194704,0.153671,0.243027,0.916630,7.544000,9.247984

0.374369,3.040611,6.234894,15.200586,0.088388,0.252619,0.943276,7.548000,9.247984

0.163607,2.705308,11.503938,15.191763,0.014578,0.354408,0.997634,7.548000,9.247984

0.199532,4.022569,10.708791,15.194704,0.072933,0.457529,1.069046,7.560000,9.247984

0.024696,4.798556,8.953242,15.224117,0.304756,0.424754,0.997368,7.564000,9.247984

1.631754,3.962693,7.396479,15.197645,0.140615,0.404769,0.832161,7.560000,9.247984

2.886744,4.369847,7.597661,15.200586,0.122229,0.586497,0.613129,7.576000,9.247984

2.065253,6.017621,10.078901,15.212351,0.128091,0.607014,0.557172,7.572000,9.247984

1.983822,4.341107,7.439589,15.212351,0.050284,0.698944,0.499083,7.576000,9.247984

-0.605194,5.296720,7.806027,15.212351,0.089987,0.790607,0.171867,7.580000,18.424468

-1.936825,3.917188,10.447734,15.200586,0.118232,0.660307,-0.022917,7.584000,18.424468

-5.445529,0.281549,13.264277,15.209410,-0.159422,0.598488,-0.096727,7.592000,18.424468

-3.723510,3.965089,7.820397,15.218235,-0.095737,0.522279,-0.544651,7.588000,18.424468

-2.509235,1.749696,10.258528,15.200586,-0.029122,0.309909,-0.784200,7.592000,18.424468

-4.065998,-3.057109,12.330219,15.212351,-0.114656,0.092742,-0.826834,7.580000,18.424468

-3.656449,0.008516,12.552957,15.188822,0.071601,0.030656,-0.573162,7.580000,18.424468

-3.304381,-0.774655,7.528205,15.206469,-0.005940,-0.101776,-0.435135,7.572000,18.424468

-1.697323,-1.308744,7.633585,15.197645,-0.133575,-0.190508,-0.469508,7.564000,18.424468

2.031722,-2.077546,10.612990,15.197645,-0.124515,-0.425261,-0.369052,7.556000,18.424468

2.944225,-1.945820,13.206797,15.188822,-0.091741,-0.045819,-0.085802,7.544000,18.424468

2.309545,2.650223,9.204719,15.185881,0.453175,0.066895,-0.041569,7.544000,18.424468

-0.336952,-0.968652,8.364067,15.197645,-0.099468,0.018132,-0.025315,7.548000,18.424468

0.419874,3.502850,5.741520,15.209410,-0.133575,-0.076728,-0.220366,7.544000,18.424468

-0.420778,2.010753,9.221484,15.191763,-0.033918,0.073290,-0.487361,7.532000,18.424468

-0.892597,4.008199,10.026211,15.206469,0.073733,0.074622,-0.579291,7.532000,18.424468

-1.397946,3.929163,9.817844,15.203527,-0.053103,-0.056477,-0.640044,7.532000,18.424468

-1.201554,2.355635,9.451406,15.197645,-0.052571,-0.118297,-0.666157,7.548000,18.424468

-1.886530,3.296878,8.843071,15.191763,-0.020861,-0.142012,-0.658430,7.548000,18.424468

-1.841024,5.608072,7.815607,15.194704,-0.013401,-0.185445,-0.689606,7.552000,18.424468

-1.215924,3.047796,8.572433,15.197645,-0.097070,-0.291231,-0.594746,7.556000,18.424468

-1.711693,0.535421,8.572433,15.194704,0.240272,-0.249396,-0.481233,7.572000,18.424468

-0.768055,10.240040,8.701765,15.191763,0.358315,-0.176119,-0.487095,7.576000,18.424468

2.800524,5.749378,8.778405,15.215292,-0.157557,-0.345323,-0.249677,7.576000,18.424468

2.280804,1.867052,11.319521,15.206469,-0.175943,-0.244067,-0.004265,7.584000,18.424468

2.532281,3.179522,9.017907,15.200586,0.292765,-0.158799,0.246743,7.580000,18.424468

3.281923,4.709940,8.689790,15.203527,-0.043777,-0.120961,0.405555,7.584000,18.424468

5.260209,3.783067,13.041540,15.191763,-0.289189,-0.001852,0.621656,7.584000,18.424468

4.742885,-2.039225,10.747111,15.218235,0.108106,0.100469,0.686140,7.576000,18.424468

-0.475863,-1.981745,9.410690,15.215292,-0.080549,0.159357,0.604602,7.580000,18.424468

-1.654213,-0.262121,8.646679,15.200586,-0.051505,0.266475,0.435665,7.572000,18.424468

-0.609984,0.631221,9.506492,15.200586,0.034829,0.230769,0.224094,7.560000,18.424468

-1.709298,1.428763,10.622570,15.203527,-0.050972,0.264344,0.141224,7.560000,18.424468

-1.496141,0.813243,9.130473,15.215292,-0.093606,0.276601,-0.095661,7.560000,18.424468

-0.808771,1.984407,9.101733,15.200586,0.018841,0.160956,0.033839,7.560000,18.424468

1.325192,2.211934,8.785590,15.209410,-0.014466,0.175079,0.240614,7.552000,18.424468

0.901273,2.954390,9.951965,15.212351,0.015377,0.270206,0.426072,7.556000,18.424468

2.182609,3.258558,7.559340,15.206469,0.047353,0.429817,0.547579,7.552000,18.424468

-6.240675,5.814044,10.232183,15.206469,-0.022993,0.372794,-0.589416,7.580000,18.424468

-10.613981,3.493270,8.421547,15.197645,-0.025924,-0.223016,-0.780470,7.592000,18.424468

-3.706744,1.495824,10.541140,15.194704,-0.204987,-0.494542,-0.894516,7.592000,18.424468

-6.755604,-1.624887,11.508728,15.209410,-0.039780,-0.500137,-0.791128,7.584000,18.424468

-1.000372,-3.512162,12.519426,15.191763,0.091852,-0.707978,-0.567033,7.584000,18.424468

-2.494864,-1.826069,8.699369,15.185881,0.001788,-0.745016,-0.148154,7.572000,18.424468

-1.505722,-0.499228,8.411967,15.188822,0.064673,-0.736490,-0.104455,7.556000,18.424468

4.326151,-0.834530,9.834609,15.200586,0.172857,-1.018940,-0.103655,7.556000,18.424468

5.444625,-0.999787,9.643007,15.194704,0.126759,-0.759139,0.172933,7.548000,18.424468

3.696261,2.700518,9.714858,15.191763,0.205632,-0.450042,0.439662,7.540000,18.424468

0.568365,1.586834,10.430969,15.197645,0.115567,-0.305620,0.544648,7.536000,18.424468

-0.710575,1.289852,10.083691,15.200586,0.055080,-0.313081,0.305098,7.536000,18.424468

0.714462,4.427328,8.069479,15.200586,0.156869,-0.238738,0.162274,7.540000,18.424468

1.516793,3.301668,7.762917,15.197645,0.039359,-0.240070,0.250740,7.552000,18.424468

1.430573,3.512430,9.271779,15.188822,0.069736,-0.150805,0.402623,7.552000,18.424468

-0.109425,4.221356,9.180769,15.191763,0.043089,-0.137748,0.375711,7.552000,18.424468

0.225878,4.142320,8.785590,15.197645,0.062275,-0.106306,0.314158,7.548000,18.424468

0.805472,3.335198,6.474396,15.197645,0.034030,-0.141745,0.324550,7.552000,18.424468

0.120497,2.705308,6.735453,15.191763,0.049218,-0.054612,0.209971,7.568000,18.424468

-1.072223,6.398429,9.508886,15.194704,0.242670,0.005076,0.019983,7.576000,18.424468

0.589921,5.473951,9.633428,15.206469,0.043889,-0.160664,-0.086868,7.576000,18.424468

2.453246,3.957904,9.923224,15.212351,-0.233232,-0.054612,0.007993,7.580000,18.424468

1.727555,3.411839,9.432246,15.212351,0.189111,0.163088,0.202777,7.592000,18.424468

1.504818,5.117093,10.179492,15.191763,0.015111,0.048242,0.261665,7.584000,18.424468

3.296293,3.339988,11.851215,15.206469,-0.002476,0.097005,0.288578,7.584000,18.424468

4.060304,0.070787,10.739926,15.203527,0.138483,0.266475,0.544914,7.584000,18.424468

3.473524,0.585716,9.954360,15.203527,-0.032852,0.273670,0.470038,7.584000,18.424468

3.581300,2.137689,11.635664,15.203527,-0.131443,0.444472,0.313625,7.568000,18.424468

3.514239,-2.942148,10.344748,15.203527,0.200569,0.336555,0.244078,7.568000,18.424468

-0.279472,-0.853691,8.143725,15.212351,0.213359,0.496166,0.309095,7.560000,18.424468

-2.863698,2.870565,7.437194,15.191763,0.058011,0.381854,0.185723,7.552000,18.424468

-1.625473,0.604876,8.217971,15.209410,-0.199924,0.401572,0.001331,7.540000,18.424468

-1.227899,1.100645,8.862231,15.191763,-0.045376,0.373860,-0.041037,7.548000,18.424468

0.237853,3.150782,8.807145,15.197645,-0.041379,0.353076,-0.027713,7.544000,18.424468

2.158659,0.545001,9.274175,15.197645,0.038293,0.323232,0.026911,7.540000,18.424468

-0.545319,3.586675,9.475356,15.200586,-0.039514,0.422356,0.021849,7.536000,18.424468

-1.287775,3.339988,8.857441,15.197645,-0.117854,0.420491,0.084467,7.536000,18.424468

-1.148864,1.970037,7.820397,15.191763,-0.011802,0.390380,0.146553,7.548000,18.424468

0.455800,3.246583,7.319838,15.203527,0.052682,0.378656,0.184924,7.548000,18.424468

-0.880621,6.290653,9.286150,15.194704,-0.044310,0.426886,0.253671,7.556000,18.424468

-2.482889,4.858431,9.231064,15.194704,-0.083747,0.438610,0.146553,7.560000,18.424468

-2.676886,2.839429,9.061018,15.194704,0.047353,0.317103,0.000798,7.564000,18.424468

-3.378627,7.013949,8.718530,15.194704,0.047086,0.359471,-0.093796,7.568000,6.036870

-4.089948,5.323065,9.501701,15.209410,-0.141303,0.253685,-0.127903,7.572000,6.036870

-5.912558,4.274046,10.998589,15.215292,-0.091741,0.172680,-0.200648,7.580000,6.036870

-3.357072,0.209698,10.886023,15.194704,-0.045643,-0.065271,-0.164409,7.576000,6.036870

-3.745065,1.390443,9.413086,15.182940,0.117166,-0.025568,0.013855,7.584000,6.036870

-4.674333,0.027677,10.304033,15.182940,-0.048574,-0.158799,-0.077808,7.572000,6.036870

-3.287616,0.027677,10.533955,15.206469,-0.004074,-0.344257,0.023181,7.580000,6.036870

-0.758475,-0.901591,9.096943,15.191763,0.044688,-0.392753,0.146020,7.576000,6.036870

-0.260311,-0.209430,9.144843,15.191763,0.028967,-0.280039,0.127101,7.568000,6.036870

1.904786,-0.032199,8.864626,15.209410,0.067338,-0.201166,0.022382,7.556000,6.036870

-0.219596,-0.652509,10.165122,15.177057,-0.095205,-0.129488,0.145487,7.552000,6.036870

0.403109,2.923255,9.439431,15.179998,0.160599,-0.171056,0.115910,7.556000,6.036870

0.003141,1.491034,9.611873,15.194704,0.099047,-0.129222,-0.005064,7.544000,6.036870

0.144447,2.851404,8.450288,15.200586,0.003653,-0.126290,-0.222497,7.540000,6.036870

-0.296237,4.293207,7.717412,15.179998,0.016710,-0.061007,-0.338409,7.544000,6.036870

-1.268615,4.408167,8.802356,15.212351,0.021772,-0.056211,-0.365321,7.552000,6.036870

-1.369205,4.391402,8.531718,15.200586,0.000189,-0.129222,-0.468442,7.552000,6.036870

0.046251,5.220079,7.923383,15.203527,0.060942,-0.114300,-0.506813,7.564000,6.036870

0.601896,6.704991,9.484936,15.191763,0.008183,-0.147874,-0.389836,7.568000,6.036870

0.805472,7.128910,8.225156,15.206469,0.034030,-0.107372,-0.259269,7.576000,6.036870

0.743202,6.920543,8.390412,15.197645,0.006051,-0.061007,-0.107119,7.584000,6.036870

0.977914,6.659486,8.550879,15.188822,0.011380,-0.026367,-0.006929,7.592000,6.036870

2.539467,5.828414,8.819120,15.203527,-0.081348,0.018665,0.022914,7.600000,6.036870

3.959713,5.464371,8.268266,15.197645,-0.133842,0.157492,0.116976,7.604000,6.036870

1.679655,-0.005854,9.947175,15.200586,-0.186868,0.312573,0.064216,7.612000,6.036870

-3.036139,0.770133,10.526770,15.209410,0.051083,0.418092,-0.210240,7.612000,6.036870

-4.530631,-1.076427,11.448853,15.206469,-0.129312,0.075155,-0.543052,7.604000,6.036870

-0.396827,-0.812975,8.265871,15.185881,0.028168,-0.040756,-0.757821,7.604000,19.183496

-1.567992,0.319869,11.788945,15.203527,0.086789,-0.065004,-0.667223,7.600000,19.183496

-0.121400,-1.435680,11.250066,15.188822,0.103044,-0.124692,-0.445527,7.596000,19.183496

1.832936,-0.319601,8.421547,15.212351,0.120364,-0.077794,0.195582,7.596000,19.183496

7.269630,4.685990,5.904382,15.188822,0.107307,0.247823,0.764213,7.588000,19.183496

1.035394,0.659962,4.587121,15.191763,-0.018730,0.268873,1.166039,7.588000,19.183496

-3.948641,-5.145566,14.468972,15.182940,-0.003541,0.248356,0.943276,7.576000,19.183496

-8.221356,2.729259,11.824870,15.197645,0.274912,0.567045,0.320819,7.576000,19.183496

-3.622919,1.711375,7.839557,15.188822,-0.046708,-0.282704,0.011457,7.580000,19.183496

-0.509393,3.306458,9.659773,15.191763,-0.217244,0.056769,0.147352,7.568000,19.183496

1.341957,3.627391,9.293335,15.188822,-0.023260,0.277933,0.205441,7.564000,19.183496

0.221088,0.355794,10.023815,15.197645,-0.167682,0.098337,0.247009,7.568000,19.183496

-2.600245,2.911280,10.526770,15.203527,-0.016065,0.245425,0.141757,7.564000,19.183496

-3.019374,0.882698,7.624006,15.191763,0.027368,0.082350,-0.197184,7.564000,19.183496

-3.151100,3.069351,9.269384,15.206469,-0.112791,0.050374,-0.266730,7.560000,19.183496

-1.881740,1.883817,9.542417,15.188822,-0.055235,-0.032496,-0.185193,7.564000,19.183496

-2.114057,1.637130,9.702883,15.218235,-0.078151,-0.080992,-0.278721,7.564000,19.183496

-1.261430,2.010753,9.563972,15.200586,-0.043244,-0.127356,-0.362923,7.560000,19.183496

0.024696,1.713770,10.811777,15.191763,-0.038448,-0.111102,-0.345070,7.564000,19.183496

0.146842,2.640643,9.904064,15.200586,-0.035783,-0.153736,-0.284583,7.560000,19.183496

0.230668,1.210816,9.959150,15.203527,0.077463,-0.164927,-0.374115,7.564000,19.183496

0.407899,1.898187,9.003537,15.200586,0.031898,-0.067669,-0.431937,7.556000,19.183496

-0.394432,3.680081,10.270503,15.203527,-0.060564,-0.077528,-0.442329,7.560000,19.183496

0.901273,3.426209,8.268266,15.218235,0.263187,-0.062606,-0.464445,7.560000,19.183496

0.642611,1.220396,9.362790,15.203527,0.132621,-0.070866,-0.516672,7.552000,19.183496

1.454523,1.814361,9.197534,15.212351,0.090520,-0.120961,-0.588617,7.556000,19.183496

1.607804,1.668265,8.491003,15.185881,0.077996,-0.082857,-0.693070,7.556000,19.183496

1.090480,0.724627,8.474237,15.188822,-0.039514,-0.069001,-0.786332,7.548000,19.183496

-0.832721,2.844219,10.713581,15.203527,-0.037915,0.015734,-0.852415,7.544000,19.183496

-0.756080,3.251373,9.367580,15.197645,0.094517,-0.028765,-0.865471,7.552000,19.183496

-1.594337,1.526959,9.324470,15.197645,0.033230,-0.151871,-0.820972,7.548000,19.183496

-0.942892,2.880145,9.496911,15.206469,-0.009670,-0.230211,-0.799655,7.552000,19.183496

-0.483048,3.177127,10.186677,15.209410,0.103044,-0.266450,-0.674951,7.544000,19.183496

-1.189579,1.713770,8.938871,15.206469,0.143279,-0.245932,-0.472173,7.544000,19.183496

-1.465006,2.508917,9.590317,15.206469,-0.013933,-0.303754,-0.305900,7.556000,19.183496

-1.091383,3.167547,8.694579,15.206469,0.124893,-0.299225,-0.025848,7.552000,19.183496

-0.598009,1.565279,8.371252,15.197645,0.058278,-0.308284,0.296038,7.548000,19.183496

-1.433871,1.823941,9.817844,15.200586,-0.017664,-0.303488,0.384504,7.556000,19.183496

-1.982330,1.646710,9.935200,15.191763,0.089188,-0.251528,0.369049,7.548000,19.183496

-1.920060,1.349727,9.298124,15.191763,0.108639,-0.241935,0.395962,7.548000,19.183496

-1.512907,0.173773,8.881392,15.206469,-0.007005,-0.272845,0.399159,7.544000,19.183496

-0.511788,0.719837,9.439431,15.185881,-0.033385,-0.284303,0.351196,7.548000,19.183496

-0.724945,2.664593,10.016630,15.191763,0.057745,-0.204364,0.405022,7.544000,19.183496

-0.689020,0.889884,8.756850,15.215292,0.119031,-0.202499,0.466841,7.536000,19.183496

-1.215924,2.209539,9.017907,15.203527,-0.018463,-0.163062,0.486826,7.540000,19.183496

-0.547714,1.732930,9.266990,15.182940,0.166995,-0.148140,0.556372,7.544000,19.183496

-0.027994,1.301827,9.652588,15.191763,0.106241,-0.141479,0.682143,7.540000,19.183496

-2.082921,2.032308,7.521020,15.197645,0.085990,-0.056744,0.742896,7.536000,19.183496

-1.714088,0.614456,9.688513,15.206469,-0.079750,-0.099644,0.817239,7.540000,19.183496

-1.414711,1.244346,12.720608,15.194704,0.062275,-0.080992,0.891049,7.536000,19.183496

-0.138165,2.552027,8.977192,15.203527,0.127025,-0.104441,0.897977,7.536000,19.183496

-0.286657,4.041729,4.294929,15.215292,0.096915,-0.002918,0.942743,7.532000,19.183496

-1.879345,1.970037,6.766589,15.215292,-0.252950,-0.012777,1.028277,7.524000,19.183496

0.300123,1.543724,14.593513,15.215292,-0.000344,0.007740,1.000032,7.528000,19.183496

1.368302,3.308853,10.653706,15.215292,0.219754,0.069293,0.870798,7.528000,19.183496

-1.984725,2.221514,8.083850,15.224117,0.038826,0.028791,0.866268,7.540000,19.183496

-0.245941,2.204749,9.492122,15.188822,-0.027523,-0.076995,0.830562,7.536000,19.183496

-0.935707,3.134017,9.990285,15.191763,0.119831,0.067428,0.755153,7.544000,19.183496

-0.303422,1.601204,8.572433,15.191763,0.044955,0.110861,0.794856,7.552000,19.183496

-1.177604,2.288575,8.859837,15.200586,0.063607,0.077820,0.816706,7.540000,19.183496

-2.097291,2.348450,10.028605,15.203527,0.067338,0.177210,0.761815,7.544000,19.183496

-0.770451,2.003568,9.238249,15.206469,-0.011802,0.178010,0.709055,7.544000,8.535142

0.019906,2.973551,8.519743,15.200586,0.058811,0.220111,0.740498,7.548000,8.535142

-1.189579,2.374796,8.340117,15.200586,0.035629,0.124984,0.639242,7.548000,8.535142

0.312098,0.494705,10.742321,15.177057,-0.041646,0.093008,0.533723,7.540000,8.535142

-1.168024,2.025123,9.626243,15.209410,0.121163,0.261679,0.368250,7.544000,8.535142

-0.940497,4.307577,8.730505,15.194704,0.171791,0.179608,0.156412,7.540000,8.535142

0.230668,1.610784,9.329260,15.194704,0.122495,0.060766,0.120440,7.548000,8.535142

1.258131,0.671937,8.965217,15.209410,0.026302,-0.045019,0.102054,7.544000,8.535142

0.098942,0.348609,10.038186,15.197645,-0.025658,0.140439,0.165738,7.552000,8.535142

1.502423,4.415352,9.621452,15.188822,0.440918,0.184138,0.203043,7.544000,8.535142

0.142052,1.117410,8.392807,15.188822,0.109439,0.147633,0.274455,7.548000,8.535142

0.570760,-0.151950,8.840676,15.191763,-0.125048,0.161756,0.249940,7.544000,8.535142

0.127682,1.821546,9.702883,15.221176,0.018575,0.201991,0.353861,7.532000,8.535142

-0.600404,0.291129,11.015354,15.203527,0.044155,0.215847,0.499616,7.524000,8.535142

-2.336793,1.009634,11.889536,15.197645,0.141148,0.249422,0.281117,7.528000,8.535142

-2.617011,1.234766,10.426179,15.197645,-0.030454,0.128181,-0.491092,7.516000,8.535142

1.861676,2.825059,9.087363,15.206469,-0.102665,0.250221,-0.512675,7.512000,8.535142

5.003942,2.997501,8.534113,15.206469,-0.032319,0.302448,-0.494289,7.520000,8.535142

-0.236361,4.297997,8.634704,15.203527,-0.008604,0.369063,-0.680014,7.520000,8.535142

1.107245,5.234449,8.996352,15.206469,-0.100800,0.303780,-0.715986,7.520000,8.535142

0.585131,4.257281,9.281360,15.197645,0.018575,0.363201,-0.750093,7.528000,8.535142

-0.820746,5.054823,9.767549,15.185881,-0.035783,0.211584,-0.887055,7.528000,8.535142

-0.255521,4.235726,8.335326,15.209410,0.016710,0.101269,-1.003765,7.528000,8.535142

1.437757,0.626431,9.745994,15.191763,-0.106129,0.006674,-1.159912,7.536000,8.535142

-0.229176,3.663316,10.155541,15.218235,-0.044843,0.150831,-1.243049,7.528000,8.535142

-1.299750,3.045401,10.124407,15.227058,-0.049639,0.019465,-1.347769,7.532000,8.535142

1.231786,1.802386,9.178373,15.200586,0.004186,-0.061274,-1.381876,7.536000,8.535142

1.071320,1.574859,9.595107,15.194704,-0.107728,-0.047950,-1.296874,7.532000,8.535142

0.855768,1.797596,10.447734,15.197645,-0.173012,-0.073797,-0.936617,7.536000,8.535142

-0.969237,-1.366225,11.068044,15.206469,-0.096537,0.022129,-0.666424,7.536000,8.535142

-1.670978,0.271969,11.549443,15.188822,-0.086411,-0.106306,-0.419946,7.516000,8.535142

-2.415829,1.416788,9.904064,15.203527,0.113169,-0.134018,-0.087934,7.516000,8.535142

-0.780031,-1.481186,9.645403,15.203527,0.006584,-0.100444,0.235552,7.504000,15.974342

-1.148864,0.980894,9.635822,15.185881,0.068403,-0.100444,0.493487,7.512000,15.974342

-1.960775,1.196446,9.508886,15.206469,0.128890,0.004809,0.464709,7.496000,15.974342

1.246156,1.663475,8.055109,15.212351,0.076131,-0.097512,0.207306,7.488000,15.974342

1.456918,3.162757,9.381950,15.197645,-0.046975,-0.027166,0.038902,7.480000,15.974342

0.642611,1.993988,10.495634,15.194704,-0.100267,-0.033295,0.021849,7.492000,15.974342

0.537230,4.436908,9.798684,15.188822,0.239472,0.085547,-0.120176,7.492000,15.974342

0.520465,3.165152,8.191626,15.197645,-0.041912,0.084481,-0.252608,7.496000,15.974342

-0.346532,3.363939,7.470724,15.203527,-0.071489,0.063964,-0.300571,7.504000,15.974342

-1.354835,4.171061,9.197534,15.209410,-0.119719,0.145235,-0.347202,7.500000,15.974342

-0.497418,5.598492,6.469606,15.209410,-0.011002,0.106331,-0.347468,7.508000,15.974342

-0.667465,4.350687,8.366462,15.209410,-0.176209,0.088478,-0.288314,7.508000,15.974342

-0.796796,1.663475,12.193704,15.221176,-0.100534,0.247823,-0.118577,7.524000,15.974342

-4.013307,6.118211,10.035790,15.200586,0.165929,0.327229,0.306430,7.532000,15.974342

-3.203790,5.059613,6.220524,15.200586,-0.051505,-0.028765,0.830029,7.540000,15.974342

-2.679281,5.564962,9.765154,15.197645,-0.032586,0.050641,1.117276,7.544000,15.974342

-4.410880,3.124437,8.831096,15.209410,0.034296,0.093808,1.107417,7.552000,15.974342

-4.477941,3.155572,8.684999,15.209410,-0.126914,0.064497,0.903040,7.560000,15.974342

-5.788016,2.484967,11.238091,15.221176,-0.193796,0.166818,0.750357,7.556000,15.974342

-5.270692,3.354359,8.359277,15.206469,0.028967,0.232102,0.302966,7.560000,15.974342

-4.564161,2.096973,9.774734,15.209410,-0.076019,-0.049816,0.034639,7.560000,15.974342

-3.481613,-0.207035,10.727951,15.200586,-0.032852,-0.148407,-0.302703,7.560000,15.974342

-3.414552,-0.630954,10.560300,15.209410,0.032964,-0.317078,-0.543851,7.560000,15.974342

-0.935707,0.863538,7.561735,15.212351,0.145145,-0.293629,-0.600075,7.556000,15.974342

-0.916547,-3.363671,9.971126,15.203527,-0.144767,-0.449509,-0.644308,7.548000,15.974342

1.727555,0.089947,10.083691,15.212351,0.111837,-0.327736,-0.510277,7.532000,15.974342

1.813776,-2.044015,7.583290,15.206469,0.252529,-0.346122,-0.281119,7.536000,15.974342

-1.045878,5.866735,9.159214,15.212351,0.052416,-0.218220,-0.098592,7.532000,15.974342

-1.706903,3.735167,11.048884,15.188822,0.055613,-0.327736,0.042899,7.528000,15.974342

-1.019533,-1.691947,9.549602,15.194704,0.069203,-0.474024,0.065815,7.516000,15.974342

-0.552504,0.921019,10.344748,15.209410,0.030033,-0.251261,0.106850,7.512000,15.974342

-1.045878,4.132740,7.849137,15.197645,0.020440,-0.180116,0.245677,7.512000,15.974342

-0.198041,3.373519,7.691066,15.209410,0.057212,-0.215289,0.335475,7.524000,15.974342

-1.524882,1.713770,8.809541,15.203527,0.028701,-0.327736,0.301368,7.524000,15.974342

-0.835116,3.778277,9.683722,15.194704,-0.082681,-0.300823,0.223561,7.528000,15.974342

-0.236361,5.363780,9.889694,15.194704,0.057478,-0.200900,0.244078,7.536000,15.974342

0.764757,3.172337,8.100615,15.212351,0.065739,-0.349586,0.254737,7.536000,15.974342

0.276173,3.989039,8.040739,15.191763,0.050817,-0.217954,0.238483,7.544000,15.974342

0.515675,7.042689,8.960427,15.212351,-0.003009,-0.205163,0.241414,7.552000,15.974342

2.472406,3.981854,11.108760,15.230000,-0.031254,-0.243800,0.247276,7.556000,15.974342

2.458036,4.705150,8.883786,15.212351,0.081727,-0.126290,0.248875,7.564000,15.974342

0.891693,4.211776,9.266990,15.203527,0.048952,-0.067136,0.279251,7.564000,15.974342

0.695301,1.658685,9.171188,15.182940,-0.019796,-0.011445,0.342936,7.564000,15.974342

1.226996,2.173614,10.538745,15.200586,-0.087211,0.018399,0.471371,7.568000,15.974342

2.721488,1.900582,10.423784,15.218235,0.022305,0.027192,0.582752,7.556000,15.974342

3.250787,0.636012,9.789104,15.203527,-0.066160,0.033854,0.700795,7.552000,15.974342

4.024379,-2.391293,9.379556,15.191763,-0.025924,0.049308,0.799653,7.556000,15.974342

0.702486,-3.308586,9.693303,15.206469,0.020973,0.269140,0.906238,7.536000,15.974342

0.872533,1.047955,9.211904,15.200586,0.052949,0.344016,0.845484,7.532000,15.974342

0.494120,-0.803395,9.599897,15.197645,0.031632,0.381321,0.681876,7.532000,15.974342

-0.016019,2.635853,8.651469,15.212351,0.083592,0.425553,0.562767,7.532000,15.974342

2.367025,1.766461,8.522139,15.203527,0.143812,0.414628,0.459646,7.532000,15.974342

1.720370,2.398746,8.182045,15.203527,0.075331,0.522279,0.332277,7.532000,15.974342

-0.217201,1.859866,8.766430,15.203527,-0.103998,0.532405,0.155879,7.528000,15.974342

-0.535739,6.364898,8.213181,15.209410,0.046021,0.607281,-0.049297,7.528000,15.974342

0.577946,3.407049,8.974797,15.200586,0.077730,0.538534,-0.275257,7.540000,15.974342

-1.218319,2.781949,8.838281,15.203527,-0.044577,0.539066,-0.439664,7.536000,15.974342

-0.885411,2.472991,9.930409,15.209410,0.032697,0.498298,-0.503882,7.548000,15.974342

-0.844696,2.870565,6.620492,15.206469,0.102511,0.612877,-0.585686,7.552000,15.974342

-2.863698,5.507482,8.859837,15.197645,-0.220975,0.624334,-0.632850,7.548000,15.974342

-1.999095,5.164994,9.695698,15.206469,-0.053903,0.623002,-0.706393,7.552000,15.974342

-4.042047,3.792647,8.517348,15.203527,0.109172,0.469520,-0.731707,7.568000,15.974342

-2.894833,3.874078,9.034673,15.197645,-0.147698,0.338687,-0.738902,7.564000,15.974342

-4.034862,3.510035,8.299401,15.200586,-0.129312,0.302448,-0.722914,7.572000,8.287511

-4.250414,0.971314,12.373330,15.200586,-0.070956,0.021596,-0.686942,7.576000,8.287511

-5.522169,-0.139975,12.308664,15.200586,0.143279,-0.196104,-0.779138,7.572000,8.287511

-2.806217,-1.926659,8.960427,15.203527,0.126492,-0.451108,-0.793260,7.576000,8.287511

-3.033744,-0.520783,10.119617,15.203527,0.023371,-0.472958,-0.611266,7.564000,8.287511

-1.750014,-1.720688,7.813212,15.197645,0.214691,-0.610986,-0.469775,7.564000,8.287511

-2.032626,-2.312258,9.745994,15.209410,0.000189,-0.604324,-0.400494,7.552000,8.287511

1.222206,0.451595,7.650351,15.215292,0.229613,-0.678934,-0.321089,7.548000,8.287511

0.867743,2.039493,10.052556,15.215292,-0.155692,-0.377565,-0.080207,7.536000,8.287511

0.242643,1.661080,11.796130,15.209410,0.250131,-0.539840,-0.085269,7.540000,8.287511

-2.593060,0.190538,6.903105,15.212351,0.191509,-0.425528,0.096458,7.524000,8.287511

0.616266,1.802386,8.905341,15.235882,0.105175,-0.435120,0.182792,7.524000,8.287511

-0.643515,3.145992,10.066926,15.224117,0.143013,-0.419399,0.311227,7.520000,8.287511

-0.380062,1.162916,9.590317,15.215292,0.032431,-0.401546,0.491089,7.516000,8.287511

0.137262,4.918307,7.818002,15.224117,0.097448,-0.369038,0.646437,7.524000,8.287511

-0.471073,5.117093,9.259805,15.206469,0.149941,-0.255525,0.671751,7.520000,8.287511

-0.844696,5.347015,9.269384,15.209410,0.029766,-0.290165,0.679744,7.532000,8.287511

1.217416,4.312366,9.015512,15.200586,0.151806,-0.305353,0.727441,7.536000,8.287511

0.750387,3.955508,8.699369,15.209410,-0.017664,-0.171056,0.739965,7.540000,8.287511

-0.746500,7.588753,10.390254,15.200586,0.087589,-0.020505,0.640841,7.548000,8.287511

2.982545,5.210499,7.015671,15.209410,0.120097,-0.035160,0.490556,7.548000,8.287511

1.715580,3.332803,7.760522,15.206469,-0.042711,0.027192,0.382372,7.564000,8.287511

-0.097450,3.711217,10.330379,15.209410,0.039093,0.152429,0.200911,7.564000,8.287511

1.409017,2.868170,8.550879,15.224117,0.045221,0.212117,0.024247,7.564000,8.287511

-1.429081,1.024005,10.074111,15.215292,-0.142368,0.358138,-0.001334,7.572000,8.287511

0.702486,3.014266,10.045371,15.215292,0.318079,0.358938,0.002663,7.572000,8.287511

-2.142797,2.947205,9.635822,15.206469,-0.298249,0.262478,-0.120709,7.572000,8.287511

-0.928522,-0.856086,10.773457,15.209410,-0.165551,0.267275,-0.098326,7.560000,8.287511

1.837726,-1.320719,11.216536,15.212351,0.024171,0.132178,-0.049030,7.556000,8.287511

1.246156,0.106712,9.889694,15.230000,-0.169548,0.206255,-0.062354,7.556000,8.287511

-0.332162,2.475386,11.618898,15.212351,0.042024,0.160423,-0.042902,7.544000,17.298075

0.858163,0.394115,9.633428,15.230000,0.103310,0.135376,-0.033576,7.540000,17.298075

-0.873436,0.106712,9.906460,15.215292,-0.240693,0.144968,-0.010660,7.532000,17.298075

-1.917665,2.415511,7.779682,15.209410,0.092918,0.199860,0.040235,7.524000,17.298075

-2.049391,3.282508,7.585685,15.230000,0.148342,0.141504,0.030642,7.528000,17.298075

0.122892,3.442974,9.781919,15.230000,-0.100800,0.134043,0.131098,7.536000,17.298075

0.458195,4.429723,10.610596,15.232941,-0.131710,0.281930,0.332810,7.532000,17.298075

0.268988,2.992711,9.798684,15.232941,0.075598,0.272870,0.506810,7.540000,17.298075

0.702486,3.019056,7.315048,15.224117,-0.009404,0.273137,0.619257,7.540000,17.298075

0.740807,2.942415,9.654983,15.232941,0.178985,0.409832,0.812176,7.552000,17.298075

-1.048273,3.153177,8.936477,15.232941,-0.031786,0.451933,0.678945,7.556000,17.298075

-3.067274,5.519456,8.989167,15.241764,-0.118653,0.490037,0.375444,7.560000,17.298075

-1.977540,4.271651,9.470566,15.215292,0.086789,0.524145,0.060752,7.568000,17.298075

-3.757040,4.575819,9.022697,15.218235,-0.094405,0.344282,-0.176666,7.564000,17.298075

-3.745065,5.284745,9.298124,15.238823,-0.126381,0.267275,-0.306167,7.568000,17.298075

-3.313961,1.440738,11.712304,15.227058,-0.050439,0.220377,-0.345870,7.576000,17.298075

-4.159403,1.931717,9.829819,15.241764,-0.007005,0.224907,-0.405824,7.572000,17.298075

-2.588270,0.106712,9.923224,15.218235,-0.013933,-0.079659,-0.485496,7.576000,17.298075

-2.617011,-1.521901,11.796130,15.206469,-0.121584,-0.253127,-0.446592,7.568000,17.298075

-2.523605,1.038375,9.465776,15.230000,0.011114,-0.206229,-0.541720,7.560000,17.298075

0.295333,-0.408217,9.544811,15.235882,0.092918,-0.345589,-0.587285,7.552000,17.298075

-0.380062,-2.530204,9.559182,15.230000,0.031898,-0.282704,-0.603539,7.552000,17.298075

1.694025,-0.999787,8.450288,15.230000,-0.023793,-0.289898,-0.497220,7.540000,17.298075

0.412689,-0.207035,10.761481,15.224117,-0.153293,-0.186244,-0.325352,7.536000,17.298075

0.568365,3.337594,8.977192,15.230000,0.250930,-0.111369,-0.298439,7.532000,17.298075

-0.954867,-0.137580,9.568762,15.221176,-0.026457,-0.354915,-0.269928,7.516000,17.298075

-1.160839,2.104158,9.731624,15.224117,0.125693,-0.350652,-0.231024,7.520000,17.298075

0.132472,2.923255,9.231064,15.250587,0.148609,-0.316811,-0.134298,7.512000,17.298075

-1.019533,3.663316,9.077783,15.238823,0.073999,-0.346921,0.069012,7.504000,17.298075

-0.471073,3.280113,6.548642,15.241764,0.150207,-0.299757,0.209438,7.516000,17.298075

-2.063761,4.307577,8.241920,15.238823,0.148609,-0.311482,0.288578,7.528000,16.898938

-0.746500,5.541012,8.845466,15.238823,-0.001143,-0.422064,0.332011,7.528000,16.898938

1.370697,6.010436,7.185717,15.230000,0.154737,-0.377032,0.457248,7.536000,16.898938

-0.401617,4.041729,8.371252,15.244705,-0.013134,-0.298159,0.450054,7.540000,16.898938

-0.497418,5.526641,8.352092,15.235882,0.024970,-0.176119,0.413015,7.548000,16.898938

-0.104635,6.479859,8.737690,15.230000,0.027901,-0.179583,0.247809,7.560000,16.898938

1.066530,4.975787,8.598779,15.218235,-0.026457,-0.272045,0.226758,7.568000,16.898938

2.572997,4.784185,8.924501,15.221176,0.071867,-0.170257,0.338406,7.572000,16.898938

1.864071,4.877591,8.474237,15.230000,0.227215,-0.111369,0.417279,7.580000,16.898938

3.839962,2.429881,9.274175,15.218235,-0.127713,-0.103108,0.559836,7.584000,16.898938

3.816012,-1.121933,9.305309,15.238823,-0.021927,0.132445,0.779135,7.580000,16.898938

1.935922,0.427645,10.512400,15.232941,-0.115722,0.229703,0.799919,7.572000,16.898938

2.541862,2.336475,11.515913,15.241764,-0.081348,0.362135,0.790593,7.568000,16.898938

2.829264,-3.703764,9.278965,15.227058,0.158201,0.361336,0.691469,7.560000,16.898938

-1.297355,-1.208153,9.360395,15.232941,0.063607,0.472717,0.622721,7.556000,16.898938

-3.096014,-0.063334,10.160332,15.218235,0.030299,0.534004,0.485493,7.544000,16.898938

-1.213529,1.095855,10.380673,15.232941,-0.028322,0.428218,0.280584,7.552000,16.898938

-1.160839,1.043165,8.150910,15.230000,0.131555,0.439143,0.297104,7.548000,16.898938

-0.200436,2.604717,9.561577,15.232941,0.136618,0.380521,0.301368,7.544000,16.898938

0.221088,3.838153,8.955637,15.235882,0.049485,0.411964,0.304565,7.544000,16.898938

-0.394432,2.585557,9.901670,15.209410,-0.008071,0.416760,0.348798,7.552000,16.898938

0.496515,3.763907,9.305309,15.230000,0.106774,0.528674,0.369049,7.548000,16.898938

-0.068710,3.998619,7.573710,15.218235,-0.004074,0.580102,0.476434,7.552000,16.898938

-1.007557,4.669225,7.609635,15.224117,-0.103998,0.643253,0.452718,7.552000,16.898938

0.434244,6.132582,8.835886,15.230000,0.151540,0.715198,0.320553,7.556000,16.898938

-1.165629,2.892120,9.405901,15.232941,-0.041113,0.681357,0.070878,7.564000,16.898938

-1.160839,3.419024,9.516071,15.238823,-0.052038,0.662971,-0.286182,7.572000,16.898938

-2.432594,5.998460,8.974797,15.215292,0.089987,0.779416,-0.580090,7.576000,16.898938

-5.548514,2.554422,6.895920,15.232941,-0.041646,0.671232,-0.822571,7.584000,16.898938

-6.338871,2.743629,10.953083,15.221176,-0.147698,0.577171,-0.975787,7.584000,18.161133

-4.583322,-2.728991,9.908854,15.221176,-0.154892,0.184671,-1.328317,7.588000,18.161133

-7.608231,0.271969,11.084809,15.212351,0.068936,0.356273,-1.290746,7.580000,18.161133

-4.921019,-1.830859,10.323193,15.227058,0.101978,-0.119096,-1.387471,7.584000,18.161133

-5.550910,-0.384267,7.564130,15.224117,0.040958,-0.290431,-1.415184,7.576000,18.161133

-2.660121,-4.941989,11.839240,15.235882,-0.072822,-0.550765,-1.330715,7.568000,18.161133

-3.110384,-3.878600,9.286150,15.232941,0.092918,-0.421797,-1.200948,7.552000,18.161133

-0.214806,1.273087,9.010722,15.227058,0.334866,-0.503335,-1.197484,7.556000,18.161133

-2.878068,-1.663207,9.801079,15.227058,-0.058699,-0.360511,-0.959000,7.548000,18.161133

-0.768055,3.198682,10.347143,15.212351,0.165129,-0.453506,-0.627520,7.536000,18.161133

-0.847091,1.131781,7.966493,15.227058,0.267717,-0.294961,-0.444994,7.532000,18.161133

-1.199159,-0.324391,8.680209,15.241764,0.186180,-0.650689,-0.336011,7.532000,18.161133

-3.115175,2.944810,8.318562,15.224117,0.139815,-0.439917,-0.145490,7.532000,18.161133

-0.727340,3.148387,10.438154,15.221176,0.125959,-0.506266,0.010124,7.528000,18.161133

-0.938102,3.993829,8.464658,15.227058,0.147809,-0.541705,0.124970,7.524000,18.161133

-0.468678,2.822664,7.952123,15.221176,0.261589,-0.524652,0.152149,7.540000,18.161133

0.235458,6.192457,8.625124,15.230000,0.143279,-0.549966,0.192651,7.536000,18.161133

1.056949,4.753050,8.550879,15.221176,0.076664,-0.454039,0.329346,7.540000,18.161133

0.340838,7.363622,7.018065,15.227058,0.263187,-0.296826,0.490823,7.552000,18.161133

1.717975,3.035821,9.695698,15.230000,-0.086411,-0.388490,0.575558,7.556000,18.161133

2.917880,9.313168,6.507926,15.230000,0.033497,-0.250995,0.673616,7.564000,18.161133

-0.193251,3.107671,9.216694,15.244705,0.111304,0.081817,0.657095,7.568000,18.161133

2.410136,4.321947,10.512400,15.224117,-0.080549,-0.177984,0.379175,7.580000,18.161133

2.156263,6.168507,8.663445,15.232941,0.307420,0.081817,0.215300,7.584000,18.161133

2.850819,-2.408058,8.313771,15.235882,-0.273468,-0.013843,0.212636,7.576000,18.161133

-0.262706,0.432435,13.791182,15.221176,-0.212714,0.285128,0.492688,7.572000,18.161133

-0.358507,0.944969,11.369817,15.215292,0.170991,0.212650,0.270725,7.568000,18.161133

0.407899,-1.802118,8.847861,15.209410,-0.051238,0.131379,0.169202,7.552000,18.161133

-3.725904,0.065997,10.701606,15.235882,0.048152,0.127648,0.296838,7.552000,17.776150

-4.262389,1.857471,8.493398,15.218235,0.100379,0.057835,0.184124,7.544000,17.776150

-3.788175,1.426368,10.641730,15.235882,-0.131443,-0.061274,0.033306,7.548000,17.776150

1.976637,3.064561,8.601173,15.227058,0.007117,-0.069267,0.241414,7.544000,17.776150

2.867584,3.842942,4.908053,15.221176,0.063341,0.082883,0.559037,7.548000,17.776150

2.484381,0.667147,8.833491,15.238823,-0.075753,0.088478,0.831362,7.552000,17.776150

1.698815,5.450001,10.907578,15.235882,-0.085079,0.287259,0.913166,7.536000,17.776150

2.156263,0.983289,10.572275,15.235882,0.076131,0.261679,0.835625,7.540000,17.776150

1.684445,1.651500,6.931845,15.244705,0.014045,0.368797,0.751423,7.552000,17.776150

-1.476981,5.730218,8.421547,15.241764,0.100912,0.545195,0.722112,7.560000,17.776150

-1.352440,3.969878,9.901670,15.244705,-0.089875,0.535869,0.522798,7.556000,17.776150

-0.614774,1.237161,9.348420,15.215292,-0.024059,0.521746,0.183058,7.564000,17.776150

-4.351005,6.235568,9.360395,15.238823,-0.025391,0.800999,0.088198,7.560000,17.776150

-3.900741,6.041571,8.684999,15.235882,0.078529,0.467122,-0.120709,7.576000,17.776150

-3.479218,2.259835,8.270661,15.235882,-0.034984,0.289125,-0.253940,7.572000,17.776150

