ax,ay,az,gx,gy,gz,temp,volt,vel

0.345629,1.115016,9.659773,14.247646,-0.008071,0.012004,-0.014657,0.908000,0.000000

0.201927,0.944969,9.616662,14.250587,-0.005940,0.014668,-0.040504,0.904000,0.000000

0.211507,1.021610,9.628637,14.256470,-0.004874,0.015734,-0.045566,0.904000,0.000000

0.106127,1.143756,9.635822,14.244705,-0.003541,0.018132,-0.043168,0.900000,0.000000

0.154027,1.237161,9.635822,14.277058,-0.004074,0.012270,-0.032776,0.900000,0.000000

0.283358,1.201236,9.566367,14.277058,-0.006739,0.013602,-0.019720,0.900000,0.000000

0.242643,1.040770,9.619058,14.282940,-0.007538,0.015734,-0.009061,0.900000,0.000000

0.221088,0.978499,9.635822,14.297646,-0.004874,0.016001,-0.016788,0.900000,0.000000

0.228273,1.024005,9.626243,14.288822,-0.003808,0.016001,-0.031177,0.896000,0.000000

0.343234,1.153336,9.626243,14.288822,-0.001143,0.017599,-0.031710,0.900000,0.000000

0.439034,1.194051,9.614267,14.303528,-0.003275,0.025593,-0.014390,0.900000,0.000000

0.213903,1.119806,9.621452,14.297646,-0.000877,0.031722,-0.004531,0.896000,0.000000

0.163607,1.098250,9.523256,14.309410,-0.003541,0.027725,-0.016522,0.900000,0.000000

0.242643,1.186866,9.616662,14.332939,-0.002476,0.031189,-0.019453,0.896000,0.000000

0.245038,1.263507,9.662168,14.315292,-0.002209,0.032788,-0.013591,0.896000,0.000000

0.118102,1.155731,9.609477,14.344706,-0.002209,0.033854,-0.018920,0.900000,0.000000

0.161212,1.191656,9.523256,14.324116,-0.008871,0.028524,-0.028513,0.896000,0.000000

0.182767,1.095855,9.616662,14.329998,-0.004074,0.035719,-0.030645,0.896000,0.000000

-0.018414,1.069510,9.671748,14.335880,-0.001943,0.039449,-0.036773,0.896000,0.000000

-0.128585,1.014425,9.652588,14.335880,-0.008871,0.030922,-0.055159,0.892000,0.000000

0.067806,0.935389,9.489726,14.344706,-0.005940,0.035452,-0.065285,0.892000,0.000000

-0.037575,1.184471,9.654983,14.347647,-0.006473,0.027991,-0.059422,0.892000,0.000000

-0.051945,1.196446,9.578342,14.341763,0.004985,0.034120,-0.052228,0.892000,0.000000

-0.217201,1.086275,9.542417,14.356470,-0.016865,0.014135,-0.061288,0.892000,0.000000

-0.181276,1.239557,9.659773,14.338821,-0.014466,0.012270,-0.074344,0.892000,0.000000

-0.087870,1.136571,9.664562,14.341763,-0.006473,0.006674,-0.115113,0.892000,0.000000

-0.133375,1.124595,9.580737,14.356470,-0.003275,0.004543,-0.197184,0.892000,0.000000

-0.186066,1.146151,9.573552,14.359411,-0.020062,-0.008248,-0.313361,0.892000,0.000000

-0.030389,1.265902,9.654983,14.359411,-0.021661,-0.014110,-0.463113,0.892000,0.000000

0.204322,1.273087,9.690907,14.362352,-0.025924,-0.010912,-0.651769,0.888000,0.000000

0.431849,1.289852,9.551997,14.379999,-0.030454,-0.011712,-0.883591,0.888000,0.000000

0.405504,1.258717,9.482541,14.379999,-0.046975,-0.007981,-1.122341,0.888000,0.000000

0.400714,1.009634,9.542417,14.371176,-0.052304,0.016267,-1.300072,0.888000,0.000000

0.321678,0.784503,9.750783,14.374117,-0.040580,0.020530,-1.487128,0.888000,0.000000

0.175582,0.691097,9.578342,14.374117,-0.035250,0.004543,-1.670455,0.888000,0.000000

0.132472,0.727022,9.084968,14.388823,-0.041912,0.048242,-1.697367,0.884000,0.000000

-0.645909,0.909044,9.877720,14.391764,-0.013401,0.031189,-1.606504,0.888000,0.000000

0.005536,1.136571,9.386741,14.394705,-0.032852,0.045045,-1.458084,0.884000,0.000000

-0.444728,1.050350,9.583132,14.388823,-0.031520,0.070359,-1.325919,0.884000,0.000000

-0.229176,1.045560,9.872930,14.397646,-0.024059,0.060500,-1.239851,0.888000,0.000000

0.036671,1.189261,9.604687,14.403528,-0.025924,0.082616,-1.171104,0.884000,0.000000

-0.734525,1.194051,9.415481,14.406469,-0.040846,0.107397,-1.083171,0.884000,0.000000

-1.479376,0.892279,9.607082,14.400587,-0.047774,0.092475,-1.057324,0.888000,0.000000

-1.587152,0.978499,9.528047,14.391764,-0.025924,0.086880,-1.039205,0.880000,0.000000

-1.390761,0.961734,9.508886,14.412352,-0.036583,0.058102,-0.959000,0.888000,0.000000

-1.357230,0.966524,9.738809,14.412352,-0.020861,0.047177,-0.870268,0.884000,0.000000

-1.599127,0.870723,9.559182,14.418234,-0.014200,0.042380,-0.817242,0.884000,0.000000

-2.159562,0.688702,9.475356,14.403528,0.005518,0.019198,-0.774075,0.884000,0.000000

-1.984725,1.364097,9.571157,14.403528,0.029500,-0.016241,-0.755156,0.884000,0.000000

-1.802704,0.834798,9.556787,14.394705,0.010048,-0.022104,-0.730108,0.884000,0.000000

-1.821864,0.619246,9.386741,14.409410,0.055080,-0.050082,-0.728243,0.884000,0.000000

-1.898505,0.437225,9.580737,14.424116,0.068936,-0.063938,-0.771943,0.884000,0.000000

-1.721273,1.328172,9.597502,14.424116,0.027635,-0.085255,-0.743698,0.884000,0.000000

-1.560807,1.251532,9.954360,14.421175,0.107307,-0.110303,-0.699732,0.884000,0.000000

-1.433871,1.828731,9.626243,14.435881,0.195240,-0.092983,-0.658963,0.884000,0.000000

-1.335675,0.200118,9.355605,14.427057,0.109972,-0.118297,-0.612332,0.884000,0.000000

-0.983607,1.191656,9.599897,14.447645,0.181117,-0.148407,-0.523600,0.880000,0.000000

-1.362020,0.509075,9.760364,14.444704,0.123295,-0.119362,-0.480167,0.884000,0.000000

-0.768055,1.857471,9.690907,14.432940,0.142746,-0.131620,-0.390902,0.884000,0.000000

-1.469796,0.499495,9.767549,14.432940,0.114235,-0.099644,-0.320023,0.884000,0.000000

-1.144074,1.562884,9.358000,14.462351,0.062008,-0.112967,-0.224896,0.884000,0.000000

-2.001491,0.533026,10.083691,14.441763,0.128091,-0.146275,-0.169471,0.884000,0.000000

-1.460216,0.853958,9.396320,14.429998,0.087855,-0.124159,-0.127104,0.880000,0.000000

-1.728458,0.727022,9.520862,14.441763,0.138750,-0.164128,-0.079940,0.880000,0.000000

-1.115333,0.834798,9.274175,14.456469,0.098247,-0.144676,-0.085269,0.888000,0.000000

-0.576454,2.106554,9.808264,14.438822,0.208563,-0.182780,-0.081539,0.884000,0.000000

-0.281867,1.098250,9.398716,14.450586,0.125426,-0.120428,-0.115913,0.884000,0.000000

0.477355,2.310130,9.425060,14.432940,0.114768,-0.152937,-0.104988,0.892000,0.000000

-0.418383,1.404813,9.690907,14.447645,0.131555,-0.085522,-0.136697,0.888000,0.000000

0.094152,1.541329,9.099339,14.450586,0.039892,-0.110303,-0.137230,0.892000,0.000000

-0.075895,1.883817,10.016630,14.462351,0.138750,-0.126024,-0.169471,0.896000,0.000000

0.427059,1.970037,9.829819,14.447645,0.063341,-0.001852,-0.209974,0.896000,0.000000

0.747992,2.140084,9.338840,14.465292,-0.036583,0.000812,-0.193187,0.896000,0.000000

-0.586034,1.304222,9.822634,14.456469,-0.057633,0.020264,-0.179331,0.896000,0.000000

0.142052,2.547237,10.107641,14.450586,-0.017930,0.025060,-0.166807,0.892000,0.000000

-0.763265,1.574859,10.119617,14.447645,-0.028322,0.065296,-0.157481,0.892000,0.000000

-0.789611,1.574859,9.312495,14.459410,0.075065,0.006941,-0.154816,0.892000,0.000000

-1.009952,0.238438,9.252620,14.459410,0.022838,0.017866,-0.209441,0.892000,0.000000

-1.687743,-0.254936,9.168794,14.462351,0.024970,-0.043421,-0.244081,0.892000,0.000000

-1.795519,0.470755,9.223879,14.477058,-0.054969,-0.033561,-0.299772,0.892000,0.000000

-2.375113,0.195328,9.784313,14.471176,0.021772,-0.041555,-0.352798,0.888000,0.000000

-1.376390,0.624036,9.446616,14.459410,0.041757,-0.063938,-0.422078,0.888000,0.000000

-1.287775,1.613179,9.504096,14.480000,0.145678,-0.093249,-0.408488,0.892000,0.000000

-0.974027,0.784503,9.868139,14.482941,0.088921,-0.046885,-0.377046,0.892000,0.000000

-0.399222,2.549632,9.549602,14.459410,0.038027,-0.042621,-0.264865,0.892000,0.000000

-1.005162,1.869447,9.829819,14.491764,0.102777,-0.051148,-0.137496,0.892000,0.000000

-0.231571,1.567674,8.993958,14.471176,0.007650,-0.059142,0.002397,0.892000,0.000000

0.067806,2.233490,9.736413,14.480000,0.046554,-0.075130,0.133763,0.892000,0.000000

0.824632,2.621483,9.575947,14.488823,-0.069358,0.001612,0.177729,0.892000,0.000000

0.451009,1.419183,9.324470,14.482941,-0.062430,0.016001,0.176663,0.892000,0.000000

0.118102,1.050350,9.336445,14.488823,-0.166350,0.074889,0.050627,0.892000,0.000000

-1.793124,-0.125605,9.482541,14.494705,-0.160221,0.084748,-0.163076,0.888000,0.000000

-1.647028,1.584439,9.781919,14.480000,-0.100534,0.080218,-0.252075,0.888000,0.000000

-1.948800,0.825218,10.145962,14.488823,-0.003541,0.086347,-0.272060,0.888000,0.000000

-1.726063,0.978499,9.518467,14.488823,0.130223,-0.014909,-0.221165,0.888000,0.000000

-1.795519,1.574859,9.961545,14.506470,0.010581,0.029590,-0.068216,0.888000,0.000000

-0.626749,2.477782,9.724438,14.497646,0.072400,-0.035693,0.055689,0.888000,0.000000

-1.251849,1.855076,9.631032,14.480000,0.076397,0.009605,0.029043,0.884000,0.000000

-0.447123,2.884935,9.377160,14.494705,-0.021661,-0.036759,0.061285,0.888000,0.000000

0.005536,1.749696,9.693303,14.500587,0.019374,-0.044753,0.112179,0.888000,0.000000

-0.305817,2.120924,9.619058,14.506470,-0.007272,-0.052214,0.085533,0.944000,0.000000

0.096547,2.583162,10.023815,14.521175,-0.032319,0.016533,0.008792,0.972000,0.000000

-0.609984,0.327054,9.178373,14.494705,0.006318,0.027725,-0.070081,0.968000,0.000000

0.010326,0.695887,9.178373,14.506470,-0.093073,-0.009580,-0.093530,0.980000,0.000000

-0.164511,1.486243,10.495634,14.518234,0.040425,0.033321,-0.074877,0.976000,0.000000

-0.406408,-0.446537,9.413086,14.521175,-0.024059,0.043446,-0.091931,0.972000,0.000000

-0.660280,0.077972,9.547207,14.503529,-0.010469,0.018399,-0.033043,0.972000,0.000000

-0.981212,-1.002182,9.841794,14.509411,-0.088276,0.069826,-0.001867,0.964000,0.000000

-2.274523,-0.365107,9.916039,14.500587,-0.035250,0.042380,0.029043,0.964000,0.000000

-2.013466,0.336634,9.338840,14.500587,-0.019529,0.026659,0.025046,0.960000,0.000000

0.271383,1.155731,9.865745,14.503529,0.025503,-0.034094,0.135895,0.956000,0.000000

-0.463888,0.401300,10.064531,14.518234,-0.060298,0.046377,0.180660,0.952000,0.000000

-0.772846,0.197723,9.614267,14.524117,-0.047241,0.032788,0.128434,0.948000,0.000000

-1.462611,0.535421,9.621452,14.529999,-0.017664,0.030656,0.095392,0.948000,0.000000

-1.927245,0.528236,9.525652,14.506470,0.007117,0.011737,0.054091,0.944000,0.000000

-2.358348,0.772528,9.523256,14.521175,0.015377,0.003743,0.005594,0.944000,0.000000

-1.182394,2.398746,9.575947,14.524117,0.028967,-0.023969,0.020783,0.940000,0.000000

-0.111820,3.098092,9.678933,14.518234,0.000722,-0.009313,0.118841,0.940000,0.000000

0.134867,2.231094,9.573552,14.518234,-0.049107,0.019997,0.205175,0.936000,0.000000

-0.677045,1.098250,9.710068,14.527058,-0.060831,0.031722,0.184924,0.940000,0.000000

-0.993187,0.595296,9.738809,14.524117,-0.045643,0.024527,0.091928,0.932000,0.000000

-0.897387,0.355794,9.621452,14.512352,-0.050439,0.040515,-0.062354,0.932000,0.000000

-1.074618,0.523446,9.726833,14.518234,-0.037382,0.033321,-0.138295,0.928000,0.000000

-1.280590,1.107830,9.573552,14.521175,-0.030721,0.031722,-0.158813,0.924000,0.000000

-1.187184,1.318592,9.494516,14.532940,-0.032319,0.034919,-0.169205,0.924000,0.000000

-1.728458,1.210816,9.434641,14.518234,-0.010469,0.029324,-0.149487,0.924000,0.000000

-1.965565,1.352122,9.331655,14.529999,0.015377,-0.006649,-0.096461,0.924000,0.000000

-1.692533,1.366493,9.580737,14.529999,-0.006206,-0.014110,-0.042902,0.924000,0.000000

-1.575177,1.035980,9.549602,14.532940,-0.007805,-0.009846,0.009591,0.920000,0.000000

-1.709298,0.700677,9.410690,14.527058,0.040958,-0.049816,0.082069,0.920000,0.000000

-1.426686,1.265902,9.702883,14.541763,0.020707,-0.058076,0.135895,0.920000,0.000000

-0.430358,1.718560,9.116103,14.547646,0.030832,-0.103641,0.160143,0.916000,0.000000

-3.096014,-1.086008,9.238249,14.524117,-0.076286,0.024794,0.225426,0.916000,0.000000

-0.001649,3.047796,9.650192,14.553528,-0.119453,0.051973,0.222761,0.912000,0.000000

-0.404013,2.449041,8.510163,14.544704,0.037494,0.062365,0.116709,0.916000,0.000000

-3.038534,0.566556,9.860954,14.547646,-0.065894,-0.025568,0.013588,0.912000,0.000000

-1.486561,1.342542,9.520862,14.553528,-0.011802,-0.022637,0.041567,0.912000,0.000000

-1.496141,1.047955,9.980705,14.544704,-0.220708,0.146567,-0.029579,0.908000,0.000000

-2.097291,1.423973,10.246552,14.547646,0.048685,0.071958,-0.147888,0.908000,0.000000

-0.990792,0.554581,9.683722,14.544704,0.047086,-0.014643,-0.187857,0.908000,0.000000

0.194742,3.177127,10.016630,14.547646,-0.052038,-0.007448,-0.152151,0.904000,0.000000

-0.339347,1.962852,9.631032,14.544704,-0.014200,0.069559,-0.089000,0.908000,0.000000

-1.508116,-0.341156,9.214299,14.541763,-0.133575,0.072757,-0.095128,0.904000,0.000000

-2.652936,1.160521,8.783195,14.550587,-0.190332,0.146834,-0.036773,0.904000,0.000000

-2.679281,1.455108,10.981823,14.550587,0.060410,0.013869,0.019450,0.900000,0.000000

0.163607,2.398746,9.235854,14.550587,-0.023260,0.022929,0.108449,0.904000,0.000000

-1.649423,2.439461,9.547207,14.550587,-0.030721,0.067428,0.118042,0.900000,0.000000

-0.990792,2.348450,9.719648,14.553528,0.135019,-0.087120,0.070611,0.900000,0.000000

-0.614774,1.982013,8.850256,14.553528,-0.062163,0.003210,0.127901,0.896000,0.000000

-0.217201,3.603441,9.398716,14.562351,-0.005673,-0.019705,0.159077,1.004000,0.000000

-1.603917,1.859866,8.972402,14.577057,0.054814,-0.015708,0.130299,1.196000,0.000000

-0.763265,1.941297,9.092153,14.574116,0.081727,-0.046085,0.091928,1.332000,0.000000

-1.041088,1.570069,8.914922,14.577057,-0.033918,-0.024235,0.056489,1.348000,0.000000

-1.321305,2.549632,9.578342,14.568233,-0.071223,0.011737,0.017852,1.372000,0.000000

-1.124913,3.596256,9.748388,14.562351,-0.035517,0.041581,0.008792,2.404000,0.000000

-1.184789,4.271651,8.972402,14.574116,-0.051771,0.035186,0.059686,2.732000,0.000000

-0.504603,2.904095,9.257409,14.574116,-0.042179,0.017599,0.091129,4.148000,0.000000

-1.666188,2.863380,8.411967,14.559410,-0.012068,0.062099,0.079404,4.472000,0.000000

-2.315238,2.458621,8.505373,14.579998,-0.043511,0.039183,-0.034908,4.788000,0.000000

-2.190697,1.742511,8.646679,14.571175,-0.041113,-0.002652,-0.160145,5.676000,0.000000

-3.014584,1.996382,9.456196,14.579998,0.051883,0.000546,-0.181462,5.924000,0.000000

-1.352440,2.511312,9.741203,14.588821,0.023904,-0.047684,-0.155349,6.096000,0.000000

-2.023046,2.470596,9.118498,14.568233,-0.004074,-0.067402,-0.109784,6.764000,0.000000

-1.915270,2.978341,9.870534,14.582939,0.110505,-0.087387,-0.077275,6.856000,0.000000

-1.108148,2.465806,8.833491,14.594706,0.070802,-0.120961,-0.046632,6.944000,0.000000

-1.596732,2.286180,9.106524,14.594706,-0.002742,-0.073797,0.057288,7.052000,0.000000

-0.954867,1.610784,9.353210,14.597647,-0.004341,-0.052214,0.179061,7.048000,0.000000

-1.955985,3.339988,9.369975,14.577057,0.086789,-0.009047,0.213968,7.072000,0.000000

-0.923732,2.065838,9.643007,14.594706,-0.039780,-0.047684,0.320819,7.112000,0.000000

-0.983607,1.864656,9.259805,14.591763,0.033497,-0.033561,0.437264,7.104000,0.000000

-1.170419,1.134176,9.355605,14.574116,0.039892,-0.045286,0.528927,7.116000,0.000000

-1.156049,1.416788,9.250224,14.591763,0.027901,-0.027699,0.619790,7.088000,0.000000

-1.711693,0.583321,10.236973,14.603529,-0.047241,-0.003451,0.700529,7.152000,0.000000

-2.030231,1.364097,9.870534,14.588821,0.024970,-0.046352,0.676280,7.116000,0.000000

-1.376390,1.670660,9.954360,14.588821,0.049485,-0.043421,0.586483,7.172000,0.000000

-1.570387,1.457503,9.487331,14.588821,0.112636,-0.046885,0.568896,7.144000,0.000000

-1.867369,1.627550,9.065807,14.585880,0.030566,-0.044486,0.461778,7.184000,0.000000

-1.668583,2.525682,9.681328,14.606470,-0.005673,-0.025568,0.314158,7.176000,0.000000

-1.120123,2.027518,9.599897,14.603529,-0.016598,-0.029298,0.129499,7.180000,0.000000

-1.096173,2.130504,9.477751,14.594706,0.062008,0.000279,-0.015190,7.204000,0.000000

-0.758475,0.916229,9.750783,14.600588,0.008982,-0.002119,-0.169205,7.216000,0.000000

-0.923732,1.158126,10.224998,14.609411,-0.031520,-0.076728,-0.268596,7.208000,0.000000

-1.673373,0.710257,10.795012,14.612352,0.028967,-0.064738,-0.298439,7.208000,0.000000

-1.053063,0.973709,9.039463,14.591763,0.030832,-0.112967,-0.309897,7.216000,0.000000

0.206717,1.620364,8.567643,14.588821,-0.004607,-0.082058,-0.211040,7.208000,0.000000

0.486935,2.192774,8.917316,14.603529,0.023105,-0.078594,-0.006396,7.192000,0.000000

0.448614,1.107830,9.008327,14.609411,-0.009937,-0.047684,0.302167,7.184000,0.000000

-0.868646,1.989197,10.507609,14.606470,-0.001943,-0.037558,0.587016,7.200000,0.000000

-1.934430,1.411998,9.939990,14.600588,0.108639,-0.059675,0.809778,7.180000,0.000000

-2.487679,1.689820,9.472961,14.606470,0.066272,-0.038891,1.006694,7.192000,0.000000

-2.070946,1.306617,9.745994,14.588821,0.014578,-0.098845,0.994970,7.200000,0.000000

-1.261430,2.736444,10.342353,14.600588,0.035362,-0.116165,1.018951,7.208000,0.000000

-0.279472,2.619088,9.350815,14.594706,0.034829,-0.102309,1.035738,7.212000,0.000000

-0.020809,1.970037,9.250224,14.600588,0.041224,-0.037558,1.067181,7.200000,0.000000

0.007931,0.619246,8.790380,14.594706,-0.126381,-0.126290,1.088764,7.192000,0.000000

-0.811166,2.216724,9.798684,14.588821,-0.018197,0.003210,1.059453,7.216000,0.000000

-0.997977,1.668265,9.736413,14.606470,0.035629,-0.041822,0.979515,7.208000,0.000000

-0.109425,2.573582,9.690907,14.612352,-0.013933,-0.027699,0.771408,7.240000,0.000000

0.752782,1.234766,9.439431,14.609411,-0.001676,-0.030364,0.641640,7.244000,0.000000

1.076110,1.000055,8.790380,14.606470,-0.028589,0.035452,0.442859,7.244000,0.000000

0.616266,1.088670,9.633428,14.615294,-0.009137,0.084748,0.259267,7.236000,0.000000

0.692906,0.525841,9.312495,14.597647,-0.019796,0.111128,0.128167,7.240000,0.000000

0.484540,0.446805,8.768826,14.577057,0.023638,0.123118,0.231022,7.248000,0.000000

-0.370482,1.115016,9.678933,14.577057,0.028434,0.143103,0.338939,7.252000,0.000000

-1.191974,2.046678,10.105247,14.591763,0.011647,0.103134,0.375711,7.252000,0.000000

0.041461,2.137689,9.791499,14.588821,0.043089,0.063964,0.325349,7.252000,0.000000

-0.277076,0.837193,8.433522,14.597647,-0.080816,0.126050,0.351463,7.256000,0.000000

1.205441,2.173614,9.820239,14.577057,-0.117854,0.011204,0.481763,7.240000,0.000000

-0.736920,2.226305,10.203442,14.588821,0.076397,0.105798,0.591012,7.240000,0.000000

0.973124,1.143756,8.330537,14.579998,0.124893,0.048775,0.766078,7.236000,0.000000

-0.842301,0.791688,9.611873,14.582939,-0.040313,0.124184,0.792458,7.264000,0.000000

-0.708180,1.788016,8.941267,14.594706,-0.059499,0.119122,0.749824,7.244000,0.000000

-0.571664,2.132899,9.714858,14.579998,-0.018463,0.155627,0.757285,7.272000,0.000000

-0.583639,1.184471,9.379556,14.591763,0.027901,0.139906,0.726908,7.252000,0.000000

-1.551227,2.300550,10.277688,14.609411,-0.025125,0.148166,0.642440,7.272000,0.000000

-0.243546,1.179681,8.682605,14.609411,-0.002209,0.446604,0.376777,7.268000,0.000000

-0.147745,1.610784,9.190349,14.612352,0.063341,0.208919,0.075408,7.280000,0.000000

1.634149,1.225186,9.449011,14.606470,-0.019796,0.125250,-0.035974,7.268000,0.000000

1.756295,1.402418,9.396320,14.591763,0.030566,0.277667,-0.206243,7.276000,0.000000

0.690511,2.815479,9.810658,14.594706,0.023105,0.336022,-0.421012,7.288000,0.000000

0.118102,2.403536,9.360395,14.612352,-0.019529,0.282996,-0.563836,7.296000,0.000000

0.362394,0.959339,9.772339,14.594706,-0.025924,0.302981,-0.714920,7.280000,0.000000

0.872533,2.904095,8.850256,14.597647,-0.063229,0.321367,-0.899046,7.296000,0.000000

-0.008834,0.453990,8.392807,14.588821,-0.106129,0.321633,-1.063986,7.304000,0.000000

-0.265101,1.093460,10.107641,14.603529,-0.200990,0.348546,-1.207609,7.288000,0.000000

0.340838,2.700518,10.272898,14.600588,-0.135707,0.305112,-1.316326,7.308000,0.000000

-0.277076,1.749696,10.402228,14.597647,-0.051238,0.254218,-1.439965,7.292000,0.000000

-1.014742,1.644315,9.686118,14.594706,-0.054969,0.197195,-1.424243,7.316000,0.000000

-1.441056,1.891002,9.808264,14.585880,0.002587,0.141238,-1.374148,7.316000,0.000000

-0.377667,2.341265,9.017907,14.621176,-0.040047,0.077287,-1.323254,7.324000,0.000000

-0.344137,1.323382,9.523256,14.609411,0.027635,0.066895,-1.130602,7.316000,0.000000

-0.368087,1.241951,9.319680,14.615294,0.052416,0.026926,-0.843089,7.320000,0.000000

-0.945287,0.494705,9.250224,14.591763,-0.010203,0.005609,-0.644574,7.332000,0.000000

-1.211134,1.807176,9.690907,14.621176,0.075065,0.038916,-0.480167,7.324000,0.000000

-1.678163,1.594019,9.231064,14.606470,0.098514,0.000546,-0.396498,7.316000,0.000000

-2.152377,1.802386,9.841794,14.603529,0.028967,-0.035160,-0.351199,7.336000,0.000000

-2.121242,1.821546,9.159214,14.600588,0.059877,-0.029565,-0.374115,7.336000,0.000000

-0.521369,2.039493,9.619058,14.609411,0.022305,-0.074597,-0.378112,7.356000,0.000000

-0.861461,1.737720,9.930409,14.629999,0.062541,-0.011712,-0.427674,7.356000,0.000000

-1.536857,2.051468,10.019026,14.618235,0.117699,0.008540,-0.494289,7.348000,0.000000

-1.996701,1.946087,9.027488,14.603529,0.062541,-0.074064,-0.452188,7.360000,0.000000

-1.486561,2.710098,8.869416,14.609411,0.060676,-0.111102,-0.403692,7.364000,0.000000

-0.811166,0.952154,10.876443,14.621176,0.009782,-0.077528,-0.504948,7.368000,0.000000

-1.136889,1.780831,9.789104,14.624117,0.028701,-0.099378,-0.602207,7.372000,0.000000

-0.368087,1.455108,9.860954,14.629999,0.145145,-0.166526,-0.650436,7.372000,0.000000

-0.614774,0.166588,9.415481,14.615294,0.118498,-0.171856,-0.713588,7.368000,0.000000

-0.837511,1.455108,10.277688,14.621176,0.090253,-0.197436,-0.715986,7.364000,0.000000

-0.751290,0.566556,10.124407,14.606470,0.164596,-0.209960,-0.749827,7.376000,0.000000

-1.311725,0.748577,9.678933,14.603529,0.134486,-0.270180,-0.746896,7.376000,0.000000

-1.084198,1.258717,10.050160,14.615294,0.159534,-0.269647,-0.734905,7.364000,0.000000

-1.644633,-0.017829,9.130473,14.606470,0.217622,-0.280306,-0.659496,7.360000,0.000000

-2.082921,1.689820,10.232183,14.618235,0.193108,-0.344523,-0.407955,7.368000,0.000000

-1.857789,0.655172,8.960427,14.627058,0.213093,-0.401013,-0.003465,7.364000,0.000000

-1.206344,2.362821,9.243039,14.606470,0.159267,-0.416468,0.477766,7.364000,11.993214

-1.553622,1.364097,9.501701,14.612352,0.198970,-0.451908,0.893714,7.372000,11.993214

-3.563043,0.643197,9.017907,14.615294,0.182716,-0.430857,1.156979,7.368000,11.993214

-2.434989,-0.025014,9.049043,14.618235,0.086523,-0.502269,1.300069,7.360000,11.993214

-1.781149,0.686307,9.398716,14.621176,0.078263,-0.432189,1.359757,7.368000,11.993214

-0.509393,2.851404,9.247829,14.609411,0.184048,-0.371702,1.299803,7.364000,11.993214

-0.138165,0.738997,8.560458,14.606470,0.067071,-0.332799,1.219331,7.368000,11.993214

0.795892,2.755604,7.741362,14.597647,0.005252,-0.286168,1.103686,7.372000,11.993214

0.635426,0.949759,10.126801,14.621176,0.074266,-0.183846,0.860939,7.364000,11.993214

1.547928,2.889725,10.778247,14.618235,-0.047241,-0.122826,0.754887,7.368000,11.993214

0.867743,1.306617,9.003537,14.635881,0.088122,-0.082058,0.715450,7.380000,11.993214

-0.202831,2.073023,8.814330,14.609411,0.063074,0.033854,0.692801,7.380000,11.993214

-1.738038,1.380862,9.832214,14.618235,-0.015532,0.028524,0.587548,7.380000,11.993214

-0.404013,1.340147,9.298124,14.644705,-0.013134,-0.007182,0.457515,7.388000,11.993214

-0.600404,1.632339,8.972402,14.624117,0.046820,0.047710,0.409818,7.380000,11.993214

-1.017138,-0.151950,10.246552,14.641764,-0.058966,0.016267,0.387169,7.380000,11.993214

-0.938102,0.662357,9.393926,14.615294,-0.044843,0.030390,0.364519,7.384000,11.993214

-0.035179,1.498219,9.760364,14.635881,-0.018730,0.046377,0.360522,7.380000,11.993214

0.086966,1.000055,9.494516,14.624117,-0.020861,0.076221,0.404755,7.376000,11.993214

-0.993187,1.845496,9.702883,14.627058,0.007117,0.122053,0.391432,7.372000,11.993214

-0.792006,1.656290,9.283754,14.635881,0.000988,0.045578,0.350397,7.384000,11.993214

-0.166906,2.281390,8.960427,14.612352,-0.031254,0.026393,0.299769,7.388000,11.993214

-0.950077,2.386771,10.304033,14.621176,-0.013667,0.054904,0.204908,7.388000,11.993214

0.594711,1.776041,9.671748,14.632940,0.037760,-0.007715,0.118841,7.392000,11.993214

0.489330,2.401141,8.732900,14.612352,0.028434,0.064497,0.123904,7.400000,11.993214

0.410294,1.754486,8.831096,14.632940,0.045221,0.103667,0.194516,7.400000,11.993214

0.532440,0.607271,10.198652,14.621176,-0.072022,0.112726,0.268593,7.396000,11.993214

0.285753,1.512589,10.304033,14.603529,0.043356,0.100736,0.296038,7.392000,11.993214

0.561180,1.560489,9.398716,14.629999,0.043622,0.178543,0.295772,7.400000,11.993214

0.336049,2.202354,9.657377,14.624117,-0.068292,0.110328,0.167071,7.408000,11.993214

0.606686,3.260953,10.342353,14.635881,-0.002476,0.113526,0.125502,7.400000,11.993214

0.106127,1.946087,10.184282,14.635881,0.026835,0.185737,-0.041303,7.412000,11.993214

0.252223,0.497100,8.756850,14.638823,-0.030188,0.135642,-0.171070,7.404000,11.993214

-0.887806,1.189261,9.793894,14.641764,-0.132776,0.133510,-0.239285,7.412000,11.993214

0.055831,2.034703,9.590317,14.612352,-0.001410,0.131645,-0.264066,7.412000,14.609031

-0.286657,1.229976,9.336445,14.627058,-0.030188,0.169749,-0.217168,7.416000,14.609031

-0.408803,1.057535,9.199929,14.629999,0.010048,0.160423,-0.212105,7.412000,14.609031

-0.559689,0.882698,9.482541,14.635881,-0.045643,0.121520,-0.204112,7.408000,14.609031

-0.586034,1.232371,9.386741,14.618235,0.055613,0.104999,-0.157214,7.420000,14.609031

-0.221991,0.231253,9.199929,14.635881,-0.154359,0.083149,-0.098592,7.408000,14.609031

-0.315397,3.157967,9.762758,14.615294,-0.021927,0.083149,-0.126571,7.424000,14.609031

-0.241151,0.636012,9.185558,14.632940,0.011913,0.058635,-0.127370,7.412000,14.609031

0.146842,1.385653,9.765154,14.629999,-0.078950,0.068227,-0.119110,7.424000,14.609031

-0.315397,1.086275,9.995075,14.635881,-0.003541,0.049575,-0.094329,7.416000,14.609031

-0.241151,1.253927,10.488449,14.635881,-0.067226,0.024794,-0.062620,7.412000,14.609031

-0.372877,2.535262,9.183164,14.624117,0.052682,-0.000254,-0.052494,7.420000,14.609031

-0.193251,1.167706,9.518467,14.644705,0.018575,-0.025035,-0.021052,7.428000,14.609031

-0.564479,1.723350,9.389135,14.635881,-0.009404,-0.003451,0.005061,7.432000,14.609031

-0.894992,1.550909,9.547207,14.644705,-0.029921,0.003210,0.023714,7.428000,14.609031

-1.266220,1.809571,9.614267,14.632940,0.013512,-0.006116,0.052758,7.432000,14.609031

-1.227899,1.129385,9.741203,14.629999,0.006584,-0.039157,0.075141,7.432000,14.609031

0.154027,1.368887,9.288545,14.632940,0.006051,-0.014643,0.092728,7.432000,14.609031

-0.183671,1.059930,10.189072,14.627058,0.007117,0.012270,0.065016,7.432000,14.609031

0.424664,2.039493,8.730505,14.644705,0.054281,0.049575,0.086066,7.424000,14.609031

-0.938102,1.584439,9.353210,14.650587,-0.029655,-0.011712,0.033839,7.424000,14.609031

-0.102240,1.514984,10.213022,14.624117,0.024171,-0.088186,0.003996,7.432000,14.609031

0.158817,1.579649,9.420271,14.629999,-0.039780,-0.087120,0.003196,7.440000,14.609031

0.091757,2.796319,9.573552,14.635881,-0.019263,-0.094581,0.045564,7.432000,14.609031

0.264198,1.613179,9.990285,14.615294,0.032697,-0.023702,0.147352,7.432000,14.609031

0.134867,1.198841,9.959150,14.627058,0.001521,-0.070067,0.189986,7.436000,14.609031

-0.586034,2.214329,8.814330,14.647646,-0.057900,-0.102042,0.231022,7.444000,14.609031

-0.454308,2.164034,9.789104,14.629999,0.005252,-0.072465,0.339738,7.440000,14.609031

0.113312,1.481453,9.005932,14.629999,-0.010469,-0.084989,0.420476,7.448000,14.609031

-0.147745,1.835916,10.742321,14.615294,-0.044577,-0.064205,0.449787,7.440000,14.609031

-0.133375,1.615574,9.530441,14.618235,0.024171,-0.019173,0.414614,7.448000,14.609031

-0.748895,1.481453,9.911250,14.618235,-0.006473,0.032255,0.360789,7.440000,14.609031

-0.147745,1.711375,9.171188,14.627058,0.036694,-0.058609,0.344535,7.444000,16.544174

-0.859066,1.359308,9.884905,14.627058,-0.011002,-0.008780,0.270991,7.452000,16.544174

-0.736920,1.493428,9.590317,14.635881,-0.026191,0.028258,0.244611,7.448000,16.544174

-0.353717,0.813243,8.986773,14.638823,-0.053636,-0.027966,0.251006,7.452000,16.544174

-0.966842,2.429881,10.533955,14.612352,0.006051,0.036252,0.219297,7.448000,16.544174

-0.808771,1.184471,9.118498,14.650587,0.142746,0.010138,0.170268,7.452000,16.544174

-1.385971,-1.318324,8.783195,14.615294,-0.100001,0.012270,0.164939,7.456000,16.544174

-0.475863,2.312525,10.002260,14.603529,-0.146898,-0.027166,0.147885,7.452000,16.544174

-0.214806,1.220396,9.734018,14.632940,0.004719,-0.011978,0.089530,7.448000,16.544174

0.661771,1.244346,9.247829,14.615294,0.028967,0.017066,0.069012,7.460000,16.544174

0.709672,1.256322,9.516071,14.635881,0.078263,0.042913,0.107650,7.460000,16.544174

-0.289052,0.135452,9.650192,14.632940,-0.109860,0.031988,0.105518,7.460000,16.544174

-0.238756,0.770133,9.369975,14.612352,-0.001676,0.027458,0.142556,7.468000,16.544174

0.276173,1.807176,9.556787,14.635881,-0.069091,0.069027,0.115643,7.468000,16.544174

0.015116,2.240674,9.894485,14.635881,-0.037915,0.049042,0.102853,7.460000,16.544174

-0.186066,1.311407,9.295730,14.641764,0.020973,0.076221,0.102587,7.468000,16.544174

-0.372877,0.353399,9.578342,14.627058,-0.050705,0.067694,0.102320,7.464000,16.544174

0.005536,1.900582,9.690907,14.638823,-0.003541,0.073024,0.108715,7.468000,16.544174

-0.080685,1.256322,10.031001,14.624117,-0.012868,0.066095,0.078872,7.468000,16.544174

0.005536,1.282667,9.657377,14.621176,0.024970,0.108729,0.025579,7.464000,16.544174

-0.190856,1.919742,8.740085,14.650587,-0.062696,0.107930,-0.011459,7.472000,16.544174

-0.195646,2.269415,9.465776,14.627058,-0.059765,0.050641,-0.095928,7.472000,16.544174

-0.775241,1.850286,10.826147,14.618235,0.039625,0.124451,-0.176399,7.476000,16.544174

-0.341742,2.702913,9.688513,14.615294,0.037494,0.050108,-0.235288,7.476000,16.544174

0.458195,1.924532,8.883786,14.615294,0.077197,0.042647,-0.165475,7.472000,16.544174

0.726437,1.035980,8.965217,14.615294,0.005785,-0.026367,-0.085269,7.476000,16.544174

0.642611,1.354517,9.877720,14.627058,-0.084812,0.034919,-0.084203,7.476000,16.544174

-0.511788,2.456226,10.519585,14.618235,0.049751,0.040515,-0.083671,7.484000,16.544174

-0.861461,1.043165,8.816726,14.606470,0.139016,0.062099,-0.033043,7.476000,16.544174

-1.091383,0.432435,9.590317,14.618235,-0.045376,0.029590,0.021582,7.480000,16.544174

-0.631539,1.962852,9.470566,14.632940,-0.044843,0.014402,0.050893,7.488000,16.544174

0.089361,1.970037,9.164003,14.603529,0.035629,0.059700,0.084201,7.480000,16.544174

-0.600404,2.281390,10.519585,14.615294,0.048685,0.081017,0.096192,7.484000,16.544174

-0.056735,1.431158,8.572433,14.615294,0.144345,0.104733,0.055156,7.484000,16.544174

-0.559689,-0.635744,8.917316,14.615294,-0.108794,0.037051,0.032774,7.480000,16.544174

0.019906,2.640643,10.373488,14.621176,-0.107462,0.064497,0.045564,7.484000,16.544174

-0.336952,2.446646,9.422666,14.615294,0.110238,0.119388,0.002930,7.484000,16.544174

0.070201,-0.214220,9.520862,14.612352,0.013512,0.050641,0.015986,7.492000,16.544174

-0.554899,1.026400,9.935200,14.621176,-0.096803,0.127915,0.035705,7.488000,16.544174

-0.871041,2.099368,9.980705,14.612352,-0.026990,0.154028,-0.003998,7.492000,16.544174

-1.012347,2.061048,9.235854,14.603529,0.008982,0.162821,-0.067683,7.488000,16.544174

0.309703,1.237161,8.464658,14.609411,0.039359,0.053838,-0.065018,7.496000,16.544174

0.522860,0.566556,10.349538,14.618235,0.023904,0.094341,-0.138029,7.488000,16.544174

0.218693,1.526959,10.316008,14.627058,-0.087211,0.102867,-0.278188,7.496000,16.544174

-0.653095,2.393956,9.250224,14.597647,0.068670,0.076488,-0.268862,7.488000,16.544174

-0.724945,0.791688,9.372371,14.612352,-0.033918,0.108463,-0.369585,7.500000,16.544174

-0.511788,0.738997,10.593830,14.606470,-0.048041,0.059434,-0.419946,7.496000,16.544174

0.474960,2.180799,9.439431,14.606470,0.008183,0.071958,-0.438599,7.504000,16.544174

-0.535739,2.209539,9.863349,14.612352,-0.004341,0.055703,-0.429539,7.500000,16.544174

-0.703390,2.326895,8.306586,14.615294,0.051616,0.091143,-0.434602,7.496000,16.544174

-0.586034,0.307894,8.301796,14.600588,0.036961,-0.019972,-0.419413,7.496000,16.544174

-0.497418,0.492310,10.469289,14.591763,-0.153826,-0.106839,-0.369318,7.504000,16.544174

-0.212411,2.288575,9.350815,14.624117,-0.015532,-0.143078,-0.253141,7.500000,16.544174

0.098942,1.222791,10.327983,14.624117,-0.034718,-0.107638,-0.125505,7.508000,16.544174

-0.926127,2.717283,10.799802,14.603529,0.034829,-0.019173,-0.092464,7.508000,16.544174

-0.921337,0.937784,7.837162,14.606470,0.178452,-0.064738,-0.056225,7.512000,16.544174

-1.383576,0.386930,8.452682,14.606470,-0.076019,-0.118030,0.012522,7.508000,9.497033

-1.441056,1.955667,9.817844,14.615294,-0.104797,-0.096447,0.020516,7.508000,9.497033

-0.959657,1.186866,11.911091,14.603529,-0.017664,-0.084722,0.007460,7.504000,9.497033

-1.299750,0.195328,9.899275,14.621176,-0.100001,-0.131886,0.074608,7.508000,9.497033

-1.572782,3.447764,9.930409,14.588821,-0.123450,-0.037825,0.148152,7.516000,9.497033

-1.900900,2.482572,10.718371,14.612352,-0.157024,-0.118297,0.300302,7.512000,9.497033

-1.441056,1.201236,10.186677,14.600588,-0.123450,-0.090584,0.305098,7.508000,9.497033

-1.096173,2.207144,10.347143,14.612352,0.084924,-0.059675,0.306430,7.516000,9.497033

-0.607589,0.252808,8.893367,14.588821,0.037760,-0.083656,0.387169,7.516000,9.497033

-0.650700,1.457503,9.583132,14.594706,-0.046975,-0.067669,0.377576,7.520000,9.497033

-1.553622,1.855076,9.825029,14.627058,0.017243,-0.047950,0.317355,7.516000,9.497033

-1.103358,1.311407,9.551997,14.609411,-0.002476,-0.072199,0.298703,7.524000,9.497033

-0.267496,1.673055,10.177097,14.603529,0.063874,-0.052214,0.242746,7.524000,9.497033

-0.281867,0.698282,9.762758,14.615294,0.092652,0.008806,0.162274,7.520000,9.497033

-0.054340,1.867052,9.568762,14.612352,-0.058966,-0.005849,0.135362,7.524000,9.497033

0.367184,2.233490,10.050160,14.603529,-0.020062,0.056503,0.130565,7.520000,9.497033

0.051041,2.851404,10.047766,14.600588,0.029233,0.023461,0.104452,7.524000,9.497033

-0.298632,1.411998,9.870534,14.606470,0.044955,0.055437,0.036770,7.524000,9.497033

-0.796796,0.782108,9.995075,14.597647,0.050817,0.070625,-0.030378,7.524000,9.497033

-0.238756,0.904254,9.827424,14.588821,0.015377,0.078619,-0.096194,7.528000,9.497033

0.180372,0.782108,8.802356,14.618235,-0.031254,0.055703,-0.227027,7.524000,9.497033

-0.784821,1.174891,9.116103,14.606470,-0.088276,0.043180,-0.263533,7.528000,9.497033

0.692906,1.565279,9.906460,14.606470,-0.049107,-0.003451,-0.312562,7.528000,9.497033

0.374369,0.659962,10.577065,14.606470,-0.128779,-0.001320,-0.348268,7.532000,9.497033

-0.126190,3.517220,9.911250,14.624117,0.113436,-0.030097,-0.309631,7.532000,9.497033

0.065411,0.669542,8.627519,14.609411,0.116900,-0.029032,-0.242216,7.532000,20.966467

-0.420778,0.116292,9.422666,14.594706,0.082526,-0.097512,-0.150819,7.536000,20.966467

-1.074618,0.420460,10.289662,14.588821,-0.047774,-0.108704,-0.103922,7.528000,20.966467

-1.366810,3.876473,9.896879,14.597647,0.081460,-0.013310,-0.039171,7.540000,20.966467

-0.138165,1.617970,8.244316,14.597647,0.178985,-0.120162,0.079138,7.532000,20.966467

-0.674650,-0.702804,9.243039,14.606470,-0.126114,-0.172921,0.204908,7.536000,20.966467

-1.476981,2.156849,11.010564,14.594706,-0.128779,-0.087120,0.318688,7.536000,20.966467

-0.756080,3.162757,10.344748,14.594706,0.093184,-0.087387,0.436198,7.536000,20.966467

-0.777636,0.715047,9.456196,14.594706,0.097714,-0.117764,0.550510,7.540000,20.966467

-1.486561,1.117410,9.456196,14.597647,-0.001676,-0.069534,0.570495,7.540000,20.966467

-0.751290,1.790411,9.856164,14.577057,0.049751,-0.052480,0.583019,7.544000,20.966467

-0.023204,1.275482,9.264594,14.579998,0.064140,-0.001320,0.510008,7.544000,20.966467

-0.518973,0.580926,10.208232,14.582939,-0.008604,-0.001320,0.407420,7.540000,20.966467

-0.466283,2.525682,10.098062,14.594706,0.013779,0.017066,0.391699,7.544000,20.966467

-0.516578,1.201236,9.544811,14.591763,0.076131,0.058368,0.302434,7.540000,20.966467

-0.636329,0.271969,9.683722,14.582939,0.008449,0.094074,0.256868,7.548000,20.966467

0.637821,2.080208,8.313771,14.579998,-0.117587,0.185737,0.257934,7.544000,20.966467

1.552718,1.785621,9.791499,14.591763,-0.041912,0.206255,0.192918,7.544000,20.966467

0.738412,1.948482,10.462104,14.597647,0.076664,0.196396,0.099656,7.552000,20.966467

0.290543,1.107830,9.240644,14.588821,-0.002476,0.186803,-0.017055,7.552000,20.966467

-0.107030,1.347332,9.329260,14.588821,-0.127979,0.135909,-0.354396,7.560000,21.946089

-0.516578,-0.242961,8.289822,14.559410,-0.024059,0.059167,-0.334412,7.556000,21.946089

-0.056735,1.055140,8.835886,14.582939,0.097714,0.049575,-0.290978,7.560000,21.946089

-0.439938,0.257598,9.008327,14.571175,-0.088543,0.043713,-0.313894,7.560000,21.946089

-1.441056,1.622760,9.784313,14.562351,-0.098669,0.067694,-0.247545,7.564000,21.946089

-1.395551,1.397628,9.959150,14.559410,0.030033,0.061566,-0.195585,7.564000,21.946089

-0.887806,1.457503,9.111313,14.579998,0.032964,-0.028232,-0.191055,7.564000,21.946089

-0.708180,1.553304,9.592712,14.562351,-0.000610,-0.051414,-0.188124,7.560000,21.946089

-0.645909,0.700677,9.889694,14.550587,0.045754,-0.054346,-0.184393,7.564000,21.946089

-0.844696,1.206026,10.349538,14.579998,-0.004341,-0.085255,-0.166807,7.568000,21.946089

-0.598009,1.562884,9.889694,14.556469,0.046820,-0.074863,-0.132700,7.560000,21.946089

-0.511788,2.621483,8.637099,14.565292,0.047886,-0.059142,-0.119643,7.568000,21.946089

0.194742,1.483848,8.186835,14.568233,0.016710,-0.123359,-0.142292,7.568000,21.946089

-0.746500,0.403695,9.583132,14.574116,-0.033385,-0.096180,-0.140427,7.564000,21.946089

-1.206344,0.626431,10.538745,14.565292,-0.053103,-0.022637,-0.117511,7.572000,21.946089

-0.739315,1.665870,10.802197,14.559410,0.027635,-0.092450,-0.117778,7.572000,21.946089

0.489330,1.323382,10.569880,14.565292,-0.060831,-0.186511,-0.027447,7.572000,21.946089

-1.093778,2.700518,10.222602,14.577057,0.007916,-0.068468,-0.013324,7.568000,21.946089

-1.060248,2.204749,8.845466,14.553528,0.219754,-0.123892,-0.009328,7.568000,21.946089

-1.110543,0.044442,8.203601,14.538822,-0.025391,-0.196903,0.060486,7.572000,21.946089

-1.273405,1.155731,9.772339,14.550587,-0.069624,-0.150272,0.106317,7.568000,21.946089

-0.542924,1.972432,10.045371,14.553528,0.026302,-0.152404,0.184391,7.576000,21.946089

-0.598009,2.731653,9.029882,14.556469,0.172057,-0.113234,0.217166,7.576000,21.946089

-0.631539,0.065997,7.870693,14.538822,0.075598,-0.146275,0.300035,7.576000,21.946089

-1.033903,-0.417797,10.040581,14.553528,-0.168215,-0.099378,0.405821,7.580000,21.946089

-0.868646,2.956785,11.156660,14.541763,-0.012601,-0.037026,0.392231,7.580000,21.946089

-0.590824,3.076536,9.832214,14.556469,0.172057,-0.077528,0.339205,7.580000,21.946089

-0.830326,1.069510,8.359277,14.544704,0.157402,-0.102575,0.331212,7.580000,21.946089

-0.353717,0.180958,9.137658,14.550587,-0.058433,-0.073531,0.289643,7.576000,21.946089

-0.847091,1.002450,10.603411,14.538822,-0.105330,-0.018373,0.255003,7.576000,21.946089

-0.744105,2.075418,9.916039,14.524117,0.087322,0.062365,0.229423,7.580000,21.946089

-0.047155,0.894674,9.187954,14.538822,0.106508,0.034653,0.111913,7.580000,21.946089

-0.648305,0.746182,9.815449,14.535881,-0.042179,-0.001586,0.039968,7.584000,21.946089

-0.035179,1.989197,9.990285,14.547646,0.006584,0.004543,-0.028246,7.580000,21.946089

-0.442333,2.746024,9.458591,14.535881,-0.034984,0.112993,-0.092997,7.584000,21.946089

-0.334557,1.627550,9.468171,14.532940,0.042557,0.085547,-0.138562,7.580000,21.946089

-1.395551,0.796478,9.719648,14.538822,0.032165,0.140971,-0.198516,7.584000,21.946089

-0.255521,0.904254,9.657377,14.521175,-0.107462,0.127382,-0.236886,7.580000,21.946089

0.645006,2.568792,9.441826,14.538822,-0.014733,0.114592,-0.155882,7.588000,21.946089

0.786312,0.279154,9.465776,14.524117,0.008449,0.034386,-0.153484,7.588000,21.946089

-0.047155,0.513866,9.595107,14.538822,-0.140237,0.024261,-0.216902,7.584000,21.946089

-1.884135,2.013148,9.264594,14.535881,-0.090142,0.076221,-0.145223,7.588000,21.946089

-1.771569,1.867052,9.556787,14.541763,-0.003275,0.028258,-0.140161,7.592000,11.490334

0.278568,1.007240,8.970007,14.524117,0.010581,-0.060208,-0.045300,7.588000,11.490334

0.709672,0.389324,9.757969,14.544704,-0.054702,-0.031163,-0.062087,7.592000,11.490334

-0.384852,1.804781,10.119617,14.538822,-0.134108,-0.063938,-0.047432,7.592000,11.490334

0.017511,3.143597,10.409413,14.535881,-0.042978,-0.107105,0.041034,7.592000,11.490334

-0.451913,2.774764,9.532837,14.509411,0.173656,-0.056477,0.024513,7.592000,11.490334

-0.684230,-0.068124,8.677814,14.527058,0.139016,-0.111901,0.025046,7.592000,11.490334

-0.993187,-0.563893,9.307705,14.527058,-0.105064,-0.162529,0.092728,7.596000,11.490334

-1.136889,2.063443,10.512400,14.524117,-0.061097,-0.040756,0.184924,7.596000,11.490334

-0.279472,1.150941,9.262199,14.535881,-0.069091,-0.108437,0.218764,7.596000,11.490334

-0.116610,0.815638,9.820239,14.512352,0.067071,0.000546,0.246476,7.600000,11.490334

-0.123795,0.988079,9.298124,14.515293,0.001788,-0.043954,0.231555,7.596000,11.490334

-0.363297,1.661080,9.829819,14.518234,-0.010203,-0.025035,0.169735,7.592000,11.490334

-0.272286,2.262230,9.185558,14.527058,0.061475,0.032255,0.117775,7.596000,11.490334

-0.018414,1.273087,7.252778,14.518234,-0.014999,-0.037292,0.073009,7.600000,11.490334

0.386344,0.283944,10.122011,14.521175,-0.097603,0.021063,0.081803,7.604000,11.490334

0.807867,1.747301,10.323193,14.497646,0.002054,0.074089,0.024513,7.604000,11.490334

0.779127,1.922137,9.465776,14.524117,0.082526,0.028524,-0.022384,7.600000,11.490334

0.443824,1.433553,8.241920,14.512352,-0.023526,-0.016241,0.021849,7.600000,11.490334

-0.095055,-0.290861,8.615544,14.521175,-0.090408,0.008273,-0.045033,7.600000,11.490334

-1.036298,1.083880,10.450130,14.515293,-0.139437,0.057835,0.019983,7.600000,11.490334

-1.342860,1.922137,10.284873,14.521175,-0.098402,0.114325,0.022648,7.604000,23.743215

0.302518,2.118529,9.468171,14.497646,0.040425,0.090876,0.086865,7.604000,23.743215

0.237853,0.370164,9.113708,14.497646,-0.068292,-0.002119,0.055956,7.600000,23.743215

-1.191974,0.820428,10.720766,14.477058,-0.220442,-0.041555,0.082069,7.608000,23.743215

-1.302145,3.208262,11.618898,14.521175,-0.015799,0.070359,0.132963,7.604000,23.743215

-0.454308,1.891002,9.487331,14.482941,0.218155,0.101801,0.157744,7.604000,23.743215

-0.693810,0.027677,8.423943,14.494705,0.090253,0.051973,0.132164,7.612000,23.743215

-1.057853,-0.092074,9.147239,14.497646,-0.116255,-0.028499,0.118841,7.608000,23.743215

-0.724945,-0.161530,8.802356,14.503529,-0.041646,0.032788,0.086865,7.608000,23.743215

-0.748895,0.310289,9.202324,14.491764,-0.113324,0.021330,0.058087,7.608000,23.743215

-0.526159,2.214329,9.575947,14.494705,0.018042,0.078886,0.023980,7.612000,23.743215

0.113312,1.119806,9.379556,14.524117,0.068403,0.093541,-0.028513,7.612000,23.743215

-0.497418,0.602481,10.239367,14.503529,-0.013667,0.040782,-0.111649,7.612000,23.743215

-0.219596,1.907767,9.353210,14.485882,0.027635,0.050108,-0.187591,7.612000,23.743215

-0.042365,1.931717,8.730505,14.500587,0.008449,0.039716,-0.216635,7.616000,23.743215

0.051041,1.577254,7.736571,14.480000,-0.053903,0.049841,-0.211306,7.612000,23.743215

0.300123,0.662357,10.514794,14.485882,-0.066960,0.046111,-0.219033,7.612000,23.743215

1.495238,1.584439,10.519585,14.471176,0.018308,0.017066,-0.222497,7.612000,23.743215

-0.142955,2.118529,9.245434,14.497646,0.002054,0.067428,-0.081539,7.616000,23.743215

-0.705785,1.955667,8.958032,14.491764,0.033497,0.016800,-0.013591,7.612000,23.743215

-1.000372,0.463570,9.017907,14.482941,0.086789,0.047976,-0.029312,7.616000,23.743215

-1.302145,-0.034594,9.017907,14.474117,-0.084013,0.009073,0.004529,7.612000,23.743215

-0.770451,1.507799,9.238249,14.488823,-0.175943,0.012537,0.004795,7.616000,24.107821

0.666561,2.717283,10.098062,14.482941,0.077730,-0.054079,-0.007729,7.612000,24.107821

1.155145,1.330567,9.820239,14.465292,0.227215,-0.062872,0.053291,7.616000,24.107821

0.259408,-0.338761,9.460986,14.468235,0.017509,-0.090052,0.015720,7.620000,24.107821

-0.954867,1.991592,10.457314,14.480000,-0.144767,-0.010646,0.009858,7.620000,24.107821

-1.400341,3.814203,10.244158,14.474117,0.078529,0.090344,-0.038372,7.624000,24.107821

-0.964447,1.984407,9.631032,14.474117,-0.080549,-0.017574,-0.070880,7.620000,24.107821

-0.336952,0.947364,10.505215,14.456469,0.070535,-0.079659,-0.111116,7.620000,24.107821

0.424664,0.935389,9.350815,14.459410,0.133420,-0.126557,-0.160412,7.620000,24.107821

-0.159721,0.465965,9.516071,14.482941,-0.013933,-0.129222,-0.053560,7.616000,24.107821

0.419874,2.719678,9.484936,14.462351,0.019108,-0.092716,0.047962,7.624000,24.107821

-0.080685,2.920860,9.070598,14.465292,0.112103,-0.040756,0.051426,7.624000,24.107821

-0.873436,1.277877,8.459867,14.447645,0.123295,-0.107905,0.056489,7.624000,24.107821

-0.439938,1.309012,9.101733,14.477058,0.068137,-0.158266,0.074875,7.624000,24.107821

-1.129703,1.582044,8.689790,14.465292,-0.072822,-0.075130,0.115643,7.628000,24.107821

-0.447123,1.062325,10.672866,14.465292,-0.083214,-0.030364,0.162807,7.620000,24.107821

-1.635053,1.313802,10.778247,14.468235,0.022039,0.029324,0.189986,7.624000,24.107821

-0.332162,1.428763,9.544811,14.462351,0.037494,-0.011445,0.193184,7.624000,24.107821

-0.468678,1.708980,9.561577,14.456469,0.017776,-0.086854,0.209438,7.628000,24.107821

-0.514183,2.849010,9.695698,14.453527,0.097448,-0.061807,0.185723,7.624000,24.107821

-1.251849,1.141361,9.252620,14.474117,0.109705,0.023195,0.223561,7.628000,24.107821

-0.700995,0.346214,8.900552,14.465292,-0.134907,-0.029298,0.253671,7.628000,24.391848

-0.588429,2.250255,10.617781,14.471176,-0.151695,0.028258,0.286446,7.628000,24.391848

-0.322582,3.392679,10.656101,14.459410,0.112903,0.073823,0.267793,7.624000,24.391848

-0.360902,0.906649,9.032277,14.450586,0.177920,-0.005050,0.258201,7.628000,24.391848

-0.281867,-0.662089,7.379714,14.438822,0.031632,-0.011445,0.245411,7.624000,24.391848

-0.827931,2.849010,10.543535,14.444704,-0.090675,0.090077,0.256336,7.628000,24.391848

-0.392037,2.358031,10.304033,14.453527,0.044155,0.070092,0.205974,7.624000,24.391848

0.213903,0.592901,9.396320,14.444704,-0.035783,0.052506,0.203043,7.628000,24.391848

-0.313002,1.050350,9.631032,14.450586,-0.114390,0.080484,0.149751,7.628000,24.391848

0.003141,2.746024,8.502978,14.427057,0.026569,0.122586,0.116709,7.628000,24.391848

0.393529,0.784503,8.627519,14.444704,0.036961,0.126849,0.046630,7.624000,24.391848

-1.067433,0.042047,9.978311,14.441763,-0.166350,0.129247,-0.001867,7.632000,24.391848

-0.329767,1.905372,9.939990,14.435881,-0.060298,0.167085,-0.022118,7.628000,24.391848

0.278568,1.366493,10.656101,14.450586,-0.093606,0.191866,-0.052761,7.632000,24.391848

-0.696205,3.162757,8.922107,14.462351,-0.007805,0.186004,-0.134831,7.632000,24.391848

0.556390,1.807176,9.386741,14.450586,-0.031254,0.072224,-0.200648,7.632000,24.391848

0.573155,0.758158,9.243039,14.432940,0.010581,0.071691,-0.270194,7.628000,24.391848

0.803077,1.541329,9.183164,14.447645,-0.077085,0.030390,-0.333612,7.632000,24.391848

-0.552504,2.561607,9.563972,14.415293,0.007117,0.069559,-0.259802,7.632000,24.391848

-1.493746,0.698282,9.597502,14.450586,0.090520,0.056236,-0.245413,7.636000,24.391848

-0.521369,-0.518388,9.003537,14.424116,-0.088276,-0.030630,-0.246213,7.636000,24.391848

-0.914152,1.754486,10.292058,14.444704,-0.116255,0.024794,-0.219566,7.636000,24.353004

-0.253126,3.260953,10.747111,14.438822,0.026569,0.019465,-0.153484,7.636000,24.353004

0.177977,2.185589,8.411967,14.441763,0.226416,-0.040223,-0.159879,7.640000,24.353004

-0.645909,-1.040502,8.673024,14.444704,0.017776,-0.058609,-0.157214,7.640000,24.353004

-0.578849,-0.151950,7.506649,14.438822,-0.063229,-0.045286,-0.101257,7.640000,24.353004

-0.401617,0.796478,8.749665,14.435881,-0.153560,-0.046885,-0.047965,7.640000,24.353004

-0.547714,1.347332,10.100456,14.456469,-0.110393,-0.063139,0.036238,7.640000,24.353004

-1.112938,2.278995,10.038186,14.427057,-0.021661,-0.032229,0.073809,7.636000,24.353004

-0.935707,1.474268,9.664562,14.424116,0.044155,-0.045019,0.086865,7.640000,24.353004

-1.057853,0.449200,8.926897,14.429998,-0.048307,-0.046885,0.135362,7.640000,24.353004

-0.595614,1.483848,9.338840,14.432940,-0.129045,-0.011712,0.153215,7.648000,24.353004

-0.842301,2.362821,9.961545,14.429998,-0.022194,0.027725,0.084734,7.644000,24.353004

-1.024323,1.316197,9.288545,14.424116,0.026036,-0.069267,0.040501,7.640000,24.353004

-0.847091,1.055140,9.748388,14.435881,-0.014733,-0.067935,0.071944,7.644000,24.353004

0.245038,0.418065,9.113708,14.424116,0.024171,-0.059675,0.010124,7.648000,24.353004

-1.168024,1.440738,8.673024,14.432940,-0.130378,-0.091117,0.029043,7.644000,24.353004

-0.883016,1.129385,9.396320,14.427057,-0.072289,-0.009846,0.030642,7.644000,24.353004

0.527650,1.855076,8.989167,14.406469,0.057212,0.039449,0.028777,7.644000,24.353004

-2.087711,0.932994,9.825029,14.412352,0.041757,0.120454,0.034372,7.648000,24.353004

-1.644633,0.214488,9.362790,14.438822,0.062808,0.035719,0.082602,7.648000,24.353004

-0.732130,0.422855,10.232183,14.427057,-0.081082,0.023728,0.079404,7.652000,24.353004

-0.576454,2.446646,9.681328,14.409410,-0.020595,0.021063,0.053025,7.656000,25.024536

-1.527277,1.088670,10.668076,14.397646,-0.096270,0.011204,0.062884,7.656000,25.024536

-0.674650,2.707703,11.005774,14.406469,-0.016332,0.012270,0.081003,7.652000,25.024536

-0.614774,0.353399,8.625124,14.394705,-0.136773,0.048775,0.137227,7.652000,25.024536

-0.272286,1.519774,9.575947,14.394705,-0.104797,0.104733,0.141490,7.656000,25.024536

-1.225504,1.871841,10.478869,14.406469,-0.042978,0.113526,0.158810,7.660000,25.024536

-0.962052,2.286180,9.736413,14.421175,0.069736,0.098604,0.070878,7.660000,25.024536

-0.959657,1.033585,9.082573,14.403528,0.048152,0.051174,0.031175,7.660000,25.024536

-0.751290,0.331844,9.494516,14.403528,-0.072022,0.034120,0.025313,7.660000,25.024536

-0.039970,0.535421,9.551997,14.415293,-0.098935,0.086880,-0.031977,7.660000,25.024536

-0.298632,2.614298,10.205837,14.397646,-0.106129,0.081284,-0.043435,7.660000,25.024536

0.206717,2.228699,9.827424,14.394705,0.051350,0.082350,-0.068749,7.660000,25.024536

0.012721,1.172496,9.207114,14.397646,0.007117,0.065563,-0.135364,7.664000,25.024536

-0.495023,0.597691,8.929292,14.409410,0.085990,0.129514,-0.141493,7.664000,25.024536

-0.698600,0.674332,9.238249,14.409410,-0.116522,0.116457,-0.195585,7.664000,25.024536

-1.663793,1.577254,9.417875,14.403528,-0.048574,0.136974,-0.230758,7.668000,25.024536

-1.330885,1.835916,8.864626,14.388823,-0.090941,0.095939,-0.192387,7.660000,25.024536

-0.815956,0.820428,10.354328,14.406469,-0.029921,0.146034,-0.183594,7.660000,25.024536

-0.617169,0.307894,11.185400,14.412352,0.112636,0.051707,-0.199848,7.668000,25.024536

-0.404013,1.153336,10.620175,14.400587,0.009515,0.027458,-0.176666,7.664000,25.024536

-2.444569,2.135294,9.274175,14.388823,0.000722,0.134310,-0.062620,7.668000,25.024536

-1.618287,1.529354,10.112432,14.397646,-0.058699,-0.010912,0.044231,7.664000,25.024536

-1.912875,1.637130,11.456038,14.394705,-0.067226,0.050641,0.015720,7.668000,25.024536

-0.746500,2.005963,10.007051,14.406469,-0.011269,-0.103375,-0.031977,7.672000,25.024536

-1.479376,2.331685,10.083691,14.388823,0.026835,-0.038358,0.007993,7.668000,25.024536

-0.511788,2.190379,9.710068,14.388823,0.055080,-0.158532,0.030375,7.668000,25.024536

-0.518973,1.035980,9.741203,14.388823,0.045221,-0.013843,0.040767,7.672000,25.024536

-1.520092,0.777318,9.748388,14.388823,0.071601,-0.032496,0.015187,7.672000,25.024536

-0.643515,0.961734,8.869416,14.394705,0.064673,-0.061007,0.036770,7.680000,25.024536

0.245038,1.354517,8.792775,14.379999,-0.058166,-0.071133,0.067414,7.676000,25.024536

0.134867,2.592742,10.454919,14.397646,-0.054169,-0.025834,0.034905,7.676000,25.024536

0.434244,1.649105,10.387858,14.412352,0.082526,-0.019439,0.026911,7.680000,25.024536

0.618661,1.443133,9.255014,14.385881,0.035096,-0.002918,0.010924,7.672000,25.024536

-1.304540,1.706585,8.785590,14.388823,0.138483,0.071158,-0.005597,7.676000,25.024536

-0.957262,0.382139,8.680209,14.397646,-0.057367,-0.018640,-0.061821,7.676000,25.024536

-1.750014,0.643197,9.777128,14.388823,-0.033918,0.019465,-0.107386,7.676000,25.024536

-1.484166,0.073182,10.648915,14.397646,-0.125048,-0.008514,-0.134831,7.676000,25.024536

-1.268615,1.697005,10.792617,14.385881,-0.041646,0.041847,-0.081805,7.680000,25.024536

-1.112938,2.729259,10.208232,14.391764,0.066005,0.002411,-0.051429,7.684000,25.024536

-1.021928,1.778436,10.002260,14.394705,0.060410,0.007740,-0.045833,7.684000,25.024536

-1.599127,1.174891,8.572433,14.394705,0.062808,-0.032229,-0.023450,7.684000,13.281149

-0.384852,2.235884,10.708791,14.391764,0.013779,-0.004784,-0.002399,7.684000,13.281149

-0.583639,2.154454,10.471684,14.379999,0.114768,0.017333,0.004262,7.688000,13.281149

-0.418383,1.948482,10.675261,14.397646,-0.106396,-0.034094,0.012256,7.684000,13.281149

-0.016019,1.119806,9.072993,14.379999,-0.118120,0.027991,0.037037,7.684000,13.281149

0.822237,1.831126,9.968730,14.388823,-0.019263,-0.035160,0.030375,7.684000,13.281149

0.736017,2.132899,9.343630,14.394705,-0.011002,-0.052747,-0.052494,7.688000,13.281149

0.359999,2.717283,8.692184,14.391764,0.008982,-0.074863,-0.090865,7.688000,13.281149

0.568365,1.517379,8.543694,14.385881,0.076131,-0.095381,-0.069282,7.688000,13.281149

0.357604,-0.539943,10.004656,14.388823,-0.077618,-0.099111,-0.114847,7.688000,13.281149

0.407899,1.974827,10.397439,14.400587,-0.021661,-0.002652,-0.121242,7.688000,13.281149

0.053436,2.274205,9.786709,14.406469,0.015111,-0.005050,-0.090865,7.692000,13.281149

-0.341742,2.805899,8.771220,14.385881,0.036428,-0.035960,-0.096194,7.692000,13.281149

0.513280,0.511470,9.144843,14.403528,-0.060298,-0.011179,-0.107119,7.688000,13.281149

1.195861,1.845496,10.567485,14.397646,-0.036849,-0.015708,-0.138562,7.696000,13.281149

0.654586,2.037098,9.865745,14.371176,0.118765,-0.018906,-0.131900,7.692000,13.281149

-0.265101,1.955667,9.046648,14.379999,0.128624,-0.112701,-0.097527,7.696000,13.281149

-0.710575,0.427645,9.077783,14.388823,0.042024,-0.103108,-0.071680,7.696000,13.281149

-1.153654,-0.034594,9.080178,14.388823,-0.038981,-0.048750,-0.079940,7.696000,27.451864

-1.769174,1.182076,9.729228,14.377058,-0.049107,-0.056477,-0.034641,7.696000,27.451864

-0.169301,2.564002,10.153147,14.388823,-0.115722,-0.084189,-0.001067,7.696000,27.451864

-0.760870,2.161639,10.481264,14.388823,-0.034451,-0.022637,0.008259,7.700000,27.451864

-0.516578,1.634735,10.675261,14.406469,0.006851,-0.049016,0.022648,7.700000,27.451864

0.154027,1.083880,9.252620,14.374117,0.002854,-0.042088,0.085533,7.700000,27.451864

-0.447123,1.000055,9.456196,14.394705,-0.047241,-0.014110,0.092195,7.700000,27.451864

-0.638724,1.153336,10.198652,14.388823,-0.032319,-0.005316,0.087665,7.704000,27.451864

-0.004044,1.828731,9.889694,14.382940,-0.007272,-0.032229,0.057288,7.700000,27.451864

-0.598009,2.712493,9.880115,14.394705,0.107840,0.001612,0.057821,7.704000,27.451864

-0.305817,0.197723,9.223879,14.382940,0.048952,-0.016241,0.043166,7.704000,27.451864

-0.662675,1.479059,9.611873,14.382940,-0.022194,-0.068202,0.018651,7.700000,27.451864

-0.499813,1.143756,10.217813,14.382940,0.010315,0.005076,0.068213,7.704000,27.451864

-0.942892,2.350845,9.190349,14.391764,-0.011535,0.025593,0.002130,7.700000,27.451864

0.058226,0.990474,9.281360,14.379999,-0.021128,-0.049283,0.003729,7.700000,27.451864

0.839003,1.153336,9.860954,14.385881,-0.067759,0.059700,-0.033576,7.704000,27.451864

0.094152,1.261111,10.363909,14.403528,-0.052038,0.077020,-0.113248,7.704000,27.451864

0.582735,2.290970,9.987890,14.385881,-0.049639,0.018399,-0.067150,7.704000,27.451864

1.150355,2.621483,10.586645,14.374117,-0.000344,-0.013310,-0.094329,7.704000,27.451864

0.553995,2.750814,9.611873,14.403528,0.118765,-0.011978,-0.100724,7.704000,28.162861

0.326468,1.553304,8.493398,14.397646,0.165662,-0.000254,-0.095395,7.708000,28.162861

-0.375272,2.113739,10.217813,14.400587,-0.038448,0.015201,-0.052761,7.708000,28.162861

-0.765660,2.149664,10.280083,14.400587,0.011913,0.021330,-0.030911,7.708000,28.162861

0.237853,1.972432,10.481264,14.377058,0.037494,-0.013310,-0.006130,7.712000,28.162861

-0.729735,1.129385,9.693303,14.382940,0.050284,-0.031163,-0.043701,7.712000,28.162861

-0.712970,2.089788,9.961545,14.385881,0.021240,0.001345,-0.010393,7.712000,28.162861

-0.415988,2.446646,8.907737,14.400587,0.093184,0.019198,0.012789,7.716000,28.162861

-0.305817,-0.087284,8.946056,14.379999,-0.003275,-0.046885,0.013588,7.716000,28.162861

-0.317792,1.100645,10.768666,14.382940,-0.029122,-0.097512,-0.023983,7.712000,28.162861

0.757572,1.522169,9.487331,14.388823,0.014312,-0.146542,-0.012259,7.716000,28.162861

-0.930917,2.544842,9.118498,14.382940,0.126226,-0.094581,-0.010926,7.712000,28.162861

-0.581244,-0.041779,8.514953,14.388823,-0.012601,-0.061274,-0.022118,7.720000,28.162861

-0.059130,1.388048,11.003379,14.394705,-0.069891,-0.100444,-0.063419,7.716000,28.162861

-1.457821,1.431158,9.314890,14.388823,0.163797,-0.014643,-0.034908,7.720000,28.162861

-1.096173,0.770133,9.185558,14.365294,0.097714,-0.079127,-0.009860,7.720000,28.162861

-0.408803,1.361702,10.181887,14.400587,0.145411,-0.102309,0.010124,7.720000,28.705528

-0.411198,1.356912,9.226274,14.388823,0.174722,-0.045019,0.003196,7.720000,28.705528

-1.785939,0.877909,8.811935,14.388823,0.123828,-0.011445,0.014654,7.716000,28.705528

-0.789611,1.546119,8.828701,14.379999,0.144345,-0.030897,0.049028,7.724000,28.705528

-0.437543,0.841983,9.266990,14.379999,0.086789,-0.023969,0.117775,7.724000,28.705528

-0.665070,1.270692,9.475356,14.391764,0.019374,-0.052747,0.169735,7.728000,28.705528

-1.687743,1.040770,9.872930,14.391764,0.019374,-0.011445,0.210504,7.724000,28.705528

-1.778754,0.616851,9.987890,14.385881,-0.035783,0.012270,0.270991,7.724000,28.705528

-1.160839,1.548514,10.081296,14.377058,-0.034984,0.023994,0.317622,7.728000,28.705528

-1.151259,2.472991,10.155541,14.374117,0.000988,0.045045,0.236617,7.728000,28.705528

-0.619564,2.243070,9.602292,14.385881,0.001521,-0.001053,0.215567,7.724000,28.705528

0.455800,1.019215,9.472961,14.391764,0.020707,-0.011712,0.176663,7.728000,28.705528

-1.524882,1.548514,9.350815,14.359411,0.038293,0.041314,0.129233,7.724000,28.705528

-1.407526,0.667147,9.329260,14.379999,-0.083747,0.031455,0.108982,7.728000,28.705528

-1.266220,1.292247,11.048884,14.391764,-0.064561,0.087679,0.110314,7.728000,28.705528

-1.793124,0.834798,10.646521,14.359411,-0.060298,0.158824,0.011989,7.728000,28.705528

-2.123636,1.699400,10.105247,14.379999,0.035362,0.194797,0.029043,7.728000,28.705528

-0.904572,1.495824,9.319680,14.385881,0.014312,0.103667,0.006927,7.728000,28.705528

-0.693810,1.021610,9.290939,14.368235,0.056413,0.133510,-0.051695,7.732000,29.282169

-0.784821,0.791688,8.349697,14.365294,0.055347,0.067694,-0.075144,7.732000,29.282169

0.048646,1.974827,10.622570,14.388823,-0.017930,0.004809,-0.096194,7.736000,29.282169

1.217416,2.374796,9.140054,14.374117,-0.012601,0.036785,-0.108452,7.728000,29.282169

0.048646,1.668265,9.317285,14.371176,-0.015266,0.048775,-0.071413,7.732000,29.282169

-0.332162,1.977222,9.851375,14.374117,-0.049107,0.060766,-0.057557,7.732000,29.282169

-0.770451,1.807176,10.031001,14.382940,-0.016332,0.081284,-0.009594,7.736000,29.282169

-0.523764,1.500613,9.482541,14.374117,0.035096,0.088478,-0.035441,7.736000,29.282169

-0.557294,0.968919,8.955637,14.388823,0.056679,0.043180,-0.014390,7.732000,29.282169

-0.435148,0.691097,8.670630,14.385881,-0.058166,0.049042,-0.017321,7.732000,29.282169

-0.071105,1.155731,10.050160,14.377058,-0.040580,0.034386,-0.025049,7.732000,29.282169

0.029486,0.988079,9.583132,14.377058,-0.045909,0.023195,-0.047698,7.728000,29.282169

0.024696,2.463411,8.876601,14.365294,0.040958,0.016800,-0.076476,7.736000,29.282169

0.783917,1.201236,8.744875,14.362352,-0.047774,-0.054079,-0.084470,7.740000,29.282169

0.870138,0.782108,10.421389,14.353529,-0.059765,-0.055411,-0.138029,7.732000,29.282169

0.089361,0.580926,9.561577,14.365294,-0.064028,-0.055411,-0.227827,7.732000,29.282169

-1.017138,2.283785,10.263317,14.377058,-0.007805,-0.053280,-0.160678,7.736000,29.282169

-0.473468,1.754486,10.737532,14.371176,-0.000877,-0.008248,-0.154283,7.740000,29.282169

-0.930917,2.240674,10.282477,14.374117,0.120897,0.020530,-0.133233,7.736000,29.305099

-1.421896,2.140084,9.049043,14.374117,0.122762,0.017333,-0.104455,7.736000,29.305099

-1.259035,1.644315,8.711345,14.356470,0.012180,-0.037558,-0.064752,7.740000,29.305099

-0.339347,1.103040,10.593830,14.365294,0.041491,-0.058875,-0.061021,7.744000,29.305099

0.182767,1.632339,9.152028,14.362352,-0.001143,-0.019439,0.008792,7.744000,29.305099

-0.420778,2.204749,9.231064,14.359411,-0.060831,-0.031963,0.022648,7.744000,29.305099

-1.000372,1.891002,9.734018,14.362352,-0.055502,-0.065004,0.053824,7.736000,29.305099

-0.229176,1.570069,10.466894,14.365294,-0.009404,-0.065537,0.060219,7.740000,29.305099

-1.417106,0.636012,9.322075,14.377058,-0.120252,0.000013,0.022648,7.740000,29.305099

-1.053063,1.467083,10.090877,14.374117,-0.112791,-0.046618,0.058887,7.740000,29.305099

-0.111820,0.966524,9.913645,14.362352,-0.046442,-0.029032,0.065282,7.740000,29.305099

-0.554899,0.434830,11.233300,14.356470,0.031365,-0.028232,-0.005864,7.740000,29.305099

-1.232689,2.271810,7.760522,14.353529,-0.041379,0.011737,-0.027713,7.748000,29.305099

-0.317792,2.044283,9.700488,14.353529,-0.034451,0.027458,-0.015456,7.744000,29.305099

-1.014742,1.124595,10.541140,14.379999,-0.081082,-0.017574,-0.078075,7.744000,29.305099

-1.838629,2.046678,10.438154,14.377058,0.032431,0.028524,-0.014657,7.744000,29.305099

-0.995582,1.397628,10.007051,14.362352,-0.036316,0.069559,0.023447,7.744000,29.305099

-0.677045,1.752090,10.383068,14.356470,0.080128,0.061832,-0.001867,7.744000,29.305099

-1.136889,1.488638,10.179492,14.356470,0.099047,0.075688,-0.008795,7.748000,29.401710

-1.819469,1.675450,10.069321,14.344706,0.051083,0.001345,0.005594,7.744000,29.401710

-0.655490,1.852681,9.822634,14.356470,0.063341,0.019997,0.012522,7.748000,29.401710

-0.808771,1.649105,9.712463,14.350588,0.064140,0.011204,0.032241,7.744000,29.401710

-0.619564,1.287457,8.881392,14.329998,-0.029921,0.000013,0.047429,7.744000,29.401710

-0.976422,1.196446,9.793894,14.341763,-0.053370,0.025860,0.069812,7.748000,29.401710

-0.871041,1.438343,10.512400,14.332939,0.008716,-0.018107,0.029310,7.744000,29.401710

-1.692533,1.816756,9.523256,14.347647,0.119298,0.063431,0.067147,7.748000,29.401710

0.755177,2.317315,9.128078,14.327057,0.046820,-0.074330,0.027178,7.752000,29.401710

-0.365692,0.810848,9.638218,14.359411,0.002587,-0.049816,0.036238,7.748000,29.401710

-0.004044,1.335357,10.112432,14.347647,-0.019796,-0.045019,0.042100,7.748000,29.401710

-0.593219,2.051468,9.295730,14.332939,-0.003541,0.074356,0.077273,7.748000,29.401710

1.820961,2.283785,9.094548,14.344706,-0.055235,-0.038091,0.005328,7.752000,29.401710

1.600619,1.285062,10.270503,14.344706,0.120097,-0.075663,-0.050096,7.752000,29.401710

0.312098,0.065997,7.212062,14.347647,0.099580,-0.019972,-0.100191,7.752000,29.401710

-0.703390,1.455108,8.409573,14.338821,-0.073621,-0.120961,-0.040770,7.752000,29.401710

0.098942,1.059930,10.189072,14.329998,-0.035517,-0.038891,-0.070614,7.752000,29.401710

0.175582,1.277877,8.735295,14.332939,0.078795,-0.025301,-0.062087,7.752000,29.719115

-0.260311,1.002450,8.874207,14.324116,-0.014733,-0.013843,-0.006396,7.752000,29.719115

0.316888,0.794083,9.166399,14.324116,-0.067492,-0.014643,0.017319,7.756000,29.719115

0.225878,1.256322,8.811935,14.324116,-0.007805,0.003743,0.020783,7.752000,29.719115

-0.200436,1.249136,8.922107,14.335880,0.017776,0.004276,0.036770,7.752000,29.719115

-0.059130,1.143756,9.872930,14.329998,-0.010736,-0.096980,0.013055,7.752000,29.719115

-0.758475,0.909044,9.231064,14.341763,-0.083480,-0.028765,0.015720,7.752000,29.719115

-0.174091,1.376073,9.235854,14.327057,-0.065361,-0.032762,0.052492,7.756000,29.719115

-0.974027,2.360425,10.787827,14.338821,-0.049906,0.018932,0.037037,7.756000,29.719115

0.587526,2.583162,10.031001,14.338821,-0.073355,-0.090052,0.029842,7.756000,29.719115

0.738412,2.080208,9.221484,14.332939,0.067338,-0.078860,0.000532,7.760000,29.719115

0.577946,1.378468,10.658496,14.324116,0.046021,-0.072731,0.003996,7.752000,29.719115

-0.492628,1.838311,8.807145,14.327057,-0.001143,-0.062872,0.008259,7.756000,29.719115

1.021024,1.270692,9.563972,14.327057,-0.109327,-0.075929,0.006394,7.756000,29.719115

0.477355,1.649105,10.462104,14.324116,-0.073355,0.056769,-0.027980,7.760000,29.719115

-0.904572,2.197564,10.531560,14.327057,0.029233,0.092209,-0.055426,7.756000,29.719115

0.477355,1.788016,8.943662,14.335880,0.002587,-0.049549,0.017052,7.756000,29.719115

1.150355,2.013148,9.774734,14.318233,0.052682,0.004809,-0.001867,7.760000,29.719115

-0.049550,2.827454,9.650192,14.341763,0.115034,0.050907,-0.006130,7.760000,29.974183

-0.435148,0.741392,10.119617,14.329998,-0.090142,-0.037292,0.013588,7.760000,29.974183

0.664166,2.061048,9.556787,14.318233,0.073466,-0.036759,0.100455,7.764000,29.974183

0.235458,1.165311,9.171188,14.315292,0.057478,-0.002918,0.071944,7.760000,29.974183

-0.169301,0.207303,9.259805,14.315292,-0.057367,-0.020238,0.135895,7.764000,29.974183

-0.336952,1.402418,9.681328,14.318233,-0.031520,0.012537,0.126302,7.768000,29.974183

-1.541647,1.421578,10.100456,14.306469,-0.021927,0.011204,0.122038,7.764000,29.974183

-0.722550,2.164034,9.753179,14.318233,0.025237,0.003743,0.123637,7.764000,29.974183

-1.606312,0.985684,9.678933,14.303528,0.039093,0.041581,0.087931,7.764000,29.974183

-2.049391,1.083880,10.021420,14.306469,0.026835,0.048775,0.038103,7.764000,29.974183

-1.556017,1.059930,9.621452,14.312351,0.065206,0.091942,0.041300,7.768000,29.974183

0.086966,0.932994,10.169911,14.291763,-0.105330,0.027991,-0.059955,7.772000,29.974183

0.427059,0.473150,9.302915,14.291763,-0.045643,0.125783,-0.084203,7.764000,29.974183

-0.186066,1.756881,9.743598,14.294704,-0.058966,0.135909,-0.068749,7.768000,29.974183

-0.530949,0.715047,9.192744,14.288822,-0.093073,0.066095,-0.093263,7.764000,29.974183

-1.148864,0.329449,9.681328,14.288822,-0.132509,0.102601,-0.123373,7.768000,29.974183

-1.438661,1.043165,9.599897,14.291763,-0.152760,0.045311,-0.134565,7.768000,30.369686

0.429454,1.112620,10.141171,14.303528,-0.114390,0.022662,-0.133499,7.768000,30.369686

0.055831,1.206026,10.002260,14.294704,-0.063762,0.097005,-0.122841,7.764000,30.369686

-0.593219,2.499337,8.996352,14.279999,-0.013667,0.067161,-0.088467,7.772000,30.369686

-0.653095,1.665870,9.128078,14.288822,-0.034718,0.041581,-0.088733,7.768000,30.369686

-0.966842,0.442015,9.583132,14.291763,0.003120,0.003210,-0.036507,7.772000,30.369686

-0.178881,0.590506,8.653864,14.312351,-0.056301,0.017599,-0.054093,7.768000,30.369686

-0.502208,1.289852,9.698093,14.285881,-0.126647,-0.004251,-0.022118,7.772000,30.369686

0.019906,2.413116,9.688513,14.291763,-0.028589,-0.018906,-0.028246,7.772000,30.369686

-0.871041,0.592901,10.713581,14.291763,0.016443,-0.003185,-0.053827,7.768000,30.369686

-1.275800,1.608389,9.856164,14.303528,0.031099,-0.043421,-0.092997,7.772000,30.369686

-0.990792,1.342542,7.992838,14.291763,0.052416,-0.001053,-0.098859,7.772000,30.369686

-0.025599,1.368887,9.068203,14.288822,-0.104531,-0.036493,-0.122308,7.772000,30.369686

0.079781,1.215606,10.847702,14.282940,-0.024059,0.030656,-0.151352,7.772000,30.369686

-1.496141,1.862262,10.253737,14.291763,0.098780,-0.010646,-0.271793,7.772000,30.369686

1.092875,2.168824,9.815449,14.279999,-0.059765,-0.105773,-0.157481,7.772000,30.369686

0.889298,2.164034,10.605805,14.274117,-0.009670,-0.097512,-0.165208,7.772000,30.369686

-0.399222,2.738839,10.083691,14.262352,0.011380,-0.155601,-0.123906,7.772000,30.351163

-0.339347,2.302945,9.465776,14.279999,-0.004074,-0.156134,-0.050096,7.772000,30.351163

-1.201554,1.031190,10.378279,14.300587,-0.006739,-0.118297,-0.066883,7.772000,30.351163

-1.457821,1.059930,9.669353,14.297646,0.002587,-0.084189,0.063150,7.776000,30.351163

-2.305658,1.210816,9.839399,14.274117,-0.045909,0.000812,0.026378,7.776000,30.351163

-1.704508,1.653895,9.801079,14.279999,-0.041379,-0.110569,0.053558,7.776000,30.351163

-0.609984,1.316197,10.265713,14.274117,0.038826,-0.132153,0.058620,7.772000,30.351163

-0.595614,1.699400,9.587922,14.285881,0.110238,-0.100177,0.009058,7.780000,30.351163

0.321678,1.093460,8.064690,14.265293,0.066538,-0.129488,-0.017854,7.776000,30.351163

0.127682,0.662357,9.865745,14.268234,-0.096004,-0.150805,-0.003998,7.772000,30.351163

0.039066,1.972432,11.139894,14.274117,0.054547,-0.069800,0.043432,7.776000,30.351163

0.046251,1.622760,10.395043,14.279999,0.061475,-0.017307,0.042899,7.780000,30.351163

-1.699718,3.047796,7.683881,14.265293,0.053748,-0.002918,0.051426,7.776000,30.351163

1.452128,0.173773,8.277846,14.291763,-0.054436,-0.067669,0.055956,7.776000,30.351163

0.542020,1.218001,9.798684,14.297646,0.036428,0.083682,0.062351,7.780000,30.351163

0.441429,1.926927,9.451406,14.277058,0.038293,-0.050882,0.043432,7.780000,30.351163

-1.005162,1.423973,9.501701,14.274117,0.023638,-0.046885,0.070345,7.776000,30.351163

0.240248,1.194051,10.344748,14.277058,-0.103998,-0.159065,0.056755,7.784000,30.598491

-0.317792,1.608389,8.462263,14.282940,-0.039514,-0.027966,0.055689,7.784000,30.598491

-1.012347,1.879027,10.129196,14.262352,-0.018996,-0.118829,0.084201,7.784000,30.598491

0.206717,1.244346,10.481264,14.277058,0.056679,-0.146808,0.103120,7.780000,30.598491

-0.674650,0.846773,9.911250,14.277058,0.045221,-0.104441,0.091928,7.780000,30.598491

-0.521369,1.237161,8.900552,14.285881,0.016710,-0.089252,0.075940,7.784000,30.598491

-0.746500,1.045560,9.228669,14.271175,0.035629,-0.039424,0.084734,7.780000,30.598491

-1.129703,0.243228,9.413086,14.259411,-0.052571,0.002411,0.137760,7.780000,30.598491

-1.079408,2.655013,8.785590,14.271175,-0.029921,0.066362,0.168669,7.780000,30.598491

-0.665070,1.079090,9.963940,14.277058,0.034563,-0.000520,0.161741,7.780000,30.598491

-0.471073,0.885094,11.221325,14.274117,0.010048,-0.045019,0.221163,7.780000,30.598491

-0.528554,3.117252,7.916198,14.274117,0.137417,-0.014909,0.178262,7.784000,30.598491

0.609081,1.086275,6.934240,14.247646,-0.119453,-0.069267,0.102853,7.784000,30.598491

0.573155,0.044442,9.408296,14.262352,0.017776,-0.066869,0.048228,7.784000,30.598491

0.800682,0.382139,10.864468,14.274117,-0.024059,-0.136682,0.050893,7.784000,30.598491

0.582735,2.334080,9.010722,14.274117,0.047086,-0.069267,0.070611,7.784000,30.598491

-0.368087,1.076695,8.383227,14.277058,-0.037382,-0.072465,0.035438,7.784000,30.598491

-0.607589,-0.242961,8.593988,14.285881,-0.113058,-0.087920,0.057288,7.784000,30.851252

0.084571,0.899464,9.695698,14.279999,-0.082681,-0.010113,0.109781,7.788000,30.851252

-0.305817,1.881422,9.245434,14.282940,0.026835,0.039982,0.109781,7.784000,30.851252

-0.626749,1.239557,8.730505,14.288822,-0.024592,0.001612,0.131365,7.788000,30.851252

-0.586034,0.889884,10.186677,14.285881,0.027102,0.004809,0.171601,7.788000,30.851252

-0.380062,1.895792,10.478869,14.268234,0.111837,0.072757,0.135095,7.788000,30.851252

-1.259035,2.132899,8.280241,14.279999,0.107040,0.093808,0.115377,7.788000,30.851252

-0.863856,0.121082,8.536509,14.279999,-0.048307,0.039183,0.106051,7.788000,30.851252

0.120497,1.680240,9.532837,14.285881,-0.086411,-0.020505,0.113778,7.788000,30.851252

-0.133375,0.825218,9.820239,14.288822,0.079328,0.022129,0.081803,7.792000,30.851252

-0.348927,1.404813,9.822634,14.279999,-0.005140,0.056503,0.072210,7.792000,30.851252

-0.796796,1.522169,8.737690,14.268234,0.105708,0.044778,0.078339,7.792000,30.851252

0.439034,0.013306,8.783195,14.274117,-0.106662,-0.005849,-0.001600,7.792000,30.851252

-1.599127,0.212093,9.487331,14.277058,-0.021128,0.089811,-0.058090,7.792000,30.851252

-0.130980,0.830008,9.525652,14.274117,0.005252,-0.043954,-0.084736,7.792000,30.851252

0.503700,1.009634,8.862231,14.271175,-0.012601,-0.052214,-0.017055,7.792000,30.851252

0.204322,0.604876,9.175979,14.274117,0.016976,0.001345,-0.028513,7.792000,30.851252

0.134867,1.783226,9.039463,14.303528,0.018841,0.021330,0.069545,7.796000,31.036399

0.836608,0.724627,8.831096,14.282940,0.036694,0.033854,0.112712,7.792000,31.036399

-0.231571,1.186866,9.355605,14.265293,0.010581,0.084215,0.119907,7.792000,31.036399

-0.423173,2.216724,9.425060,14.274117,0.043089,0.111661,0.150816,7.792000,31.036399

-1.244664,1.639525,8.962822,14.288822,0.049485,0.091676,0.096458,7.796000,31.036399

-0.257916,0.106712,8.584409,14.288822,-0.058166,0.040782,0.071411,7.796000,31.036399

0.470170,0.427645,9.966335,14.279999,0.051083,0.047177,0.006394,7.796000,31.036399

-0.205226,1.605994,8.898156,14.265293,0.148342,0.113259,-0.030112,7.800000,31.036399

-1.529672,2.290970,7.020461,14.291763,-0.101866,0.112460,-0.072479,7.796000,31.036399

-0.739315,0.578531,9.221484,14.274117,-0.071489,0.049042,-0.082338,7.792000,31.036399

0.348024,0.192933,12.136223,14.268234,-0.089076,0.013069,-0.056758,7.796000,31.036399

1.095270,2.338870,10.071716,14.262352,0.138217,0.087679,-0.119643,7.796000,31.036399

0.278568,1.675450,9.135263,14.262352,-0.089076,0.105532,-0.108185,7.792000,31.036399

0.240248,2.690938,10.708791,14.279999,-0.035783,0.074356,-0.164942,7.792000,31.036399

0.968334,1.788016,10.438154,14.271175,0.028701,0.045844,-0.177199,7.796000,31.036399

0.166002,1.668265,10.466894,14.259411,-0.062696,0.021063,-0.164942,7.792000,31.036399

-0.308212,2.310130,10.675261,14.282940,-0.098136,0.058635,-0.076210,7.796000,31.036399

-1.136889,0.037257,10.749507,14.268234,-0.082148,-0.017574,-0.027713,7.796000,31.134729

-1.266220,1.227581,9.360395,14.282940,0.013246,-0.033029,-0.006929,7.796000,31.134729

-1.728458,2.152059,8.330537,14.271175,0.037227,-0.063672,-0.023184,7.800000,31.134729

-1.690138,0.956944,9.096943,14.288822,-0.070424,-0.111369,-0.027447,7.800000,31.134729

-1.103358,-0.010644,10.505215,14.271175,-0.083747,-0.169990,0.067680,7.800000,31.134729

-0.480653,1.306617,10.670471,14.271175,-0.004074,-0.146009,0.086599,7.800000,31.134729

-1.649423,2.269415,10.742321,14.271175,0.033763,-0.053013,0.068213,7.796000,31.134729

-1.486561,1.249136,9.113708,14.274117,0.079595,-0.131886,0.138826,7.800000,31.134729

-1.397946,1.198841,9.959150,14.271175,-0.001143,-0.117231,0.181460,7.796000,31.134729

-1.182394,1.167706,10.093271,14.271175,0.074532,-0.105240,0.196382,7.796000,31.134729

0.321678,0.935389,10.569880,14.282940,0.055080,-0.108704,0.207839,7.800000,31.134729

-0.030389,2.322105,7.693461,14.253529,-0.050705,-0.108437,0.183058,7.796000,31.134729

1.152750,0.468360,8.591594,14.288822,-0.039514,-0.038624,0.142290,7.800000,31.134729

-0.346532,2.235884,10.301638,14.279999,-0.037116,0.002144,0.134562,7.800000,31.134729

-0.509393,1.543724,9.674143,14.279999,-0.051771,0.004010,0.165738,7.800000,31.134729

-0.061525,1.218001,9.801079,14.274117,-0.097336,0.026126,0.184124,7.800000,31.134729

0.118102,1.723350,9.221484,14.274117,-0.029388,0.002944,0.161475,7.804000,31.134729

0.137262,1.428763,9.135263,14.262352,-0.063495,-0.045019,0.190786,7.804000,31.267936

-0.334557,0.818033,9.319680,14.268234,-0.049639,-0.014909,0.186522,7.804000,31.267936

-1.203949,1.050350,9.928015,14.268234,0.018042,-0.013044,0.189187,7.804000,31.267936

-0.408803,2.073023,8.864626,14.259411,0.024970,-0.035160,0.201178,7.800000,31.267936

0.046251,1.069510,8.414362,14.241764,0.005785,-0.051947,0.199846,7.800000,31.267936

0.328863,0.844378,9.123288,14.259411,0.050284,-0.043954,0.187588,7.804000,31.267936

0.403109,0.621641,9.152028,14.265293,-0.069891,-0.050615,0.184924,7.800000,31.267936

-0.576454,1.967642,9.808264,14.268234,-0.129578,0.094607,0.229423,7.804000,31.267936

0.257013,2.367611,9.789104,14.282940,-0.009137,0.061033,0.218764,7.800000,31.267936

1.114430,1.704190,9.410690,14.282940,0.064673,0.047443,0.179328,7.804000,31.267936

0.771942,2.171219,7.774892,14.279999,-0.072822,0.003210,0.140957,7.804000,31.267936

1.614989,0.216883,8.510163,14.259411,-0.072555,0.034120,0.078605,7.808000,31.267936

-0.286657,1.826336,10.042975,14.262352,-0.044310,0.147633,0.124970,7.804000,31.267936

-1.417106,1.136571,9.489726,14.279999,-0.003009,-0.000520,0.072210,7.804000,31.267936

-0.538134,1.368887,8.239526,14.268234,0.070802,-0.005050,0.122838,7.804000,31.267936

-0.538134,0.952154,9.161609,14.277058,0.098514,0.039183,0.112446,7.804000,31.303532

-0.727340,0.224068,9.722043,14.253529,0.037494,0.031722,0.098323,7.804000,31.303532

-1.682953,1.040770,10.047766,14.285881,0.025237,0.080751,0.084467,7.808000,31.303532

-1.251849,2.017938,9.034673,14.279999,0.031365,0.062099,0.114311,7.808000,31.303532

-1.223109,1.325777,9.513677,14.256470,0.018308,0.027725,0.061285,7.808000,31.303532

-0.801586,0.662357,10.131592,14.279999,0.047086,0.024261,0.054357,7.808000,31.303532

-0.128585,0.600086,9.609477,14.274117,0.063341,0.108729,0.126835,7.816000,31.303532

0.110917,1.153336,8.373647,14.268234,-0.002742,0.097272,0.098590,7.812000,31.303532

-1.714088,1.143756,9.506492,14.271175,0.014578,0.114858,0.075141,7.812000,31.303532

0.058226,0.580926,10.246552,14.274117,0.011647,0.051174,0.043166,7.812000,31.303532

0.223483,2.734049,9.008327,14.268234,0.018575,0.193997,0.061285,7.816000,31.303532

0.431849,0.746182,10.510005,14.277058,-0.096004,0.033587,-0.028246,7.812000,31.303532

0.132472,2.120924,10.682446,14.268234,0.037760,0.062631,-0.124706,7.812000,31.303532

0.120497,1.328172,9.623847,14.265293,0.017243,0.017333,-0.135631,7.812000,31.303532

0.019906,1.823941,9.250224,14.259411,-0.063495,-0.008514,-0.107652,7.812000,31.303532

-0.001649,1.234766,10.354328,14.271175,-0.033918,0.033321,-0.067416,7.812000,31.303532

-0.377667,0.964129,9.056228,14.256470,-0.115722,0.061299,-0.064485,7.816000,31.894634

-0.827931,1.213211,9.307705,14.262352,-0.093606,0.091409,-0.011459,7.812000,31.894634

-1.129703,1.874237,9.676538,14.265293,0.009249,0.073823,-0.081272,7.812000,31.894634

-1.577572,1.129385,9.916039,14.265293,-0.044310,0.026393,-0.037839,7.816000,31.894634

-0.550109,1.289852,10.347143,14.279999,-0.024592,0.023728,-0.001867,7.816000,31.894634

1.116825,2.029913,9.451406,14.274117,0.094783,0.043180,0.019717,7.812000,31.894634

0.383949,0.365374,9.008327,14.277058,-0.008338,0.010138,-0.037040,7.816000,31.894634

-1.227899,1.584439,9.389135,14.282940,-0.069091,0.018932,-0.026381,7.816000,31.894634

-0.813561,1.136571,9.173584,14.277058,-0.015799,0.031988,-0.017321,7.812000,31.894634

-0.588429,1.165311,9.832214,14.277058,0.023904,0.025593,-0.049563,7.816000,31.894634

-0.818351,0.964129,10.141171,14.259411,0.015377,-0.023169,-0.060222,7.816000,31.894634

0.041461,2.005963,8.182045,14.277058,0.025769,0.005875,-0.044767,7.816000,31.894634

-1.951195,0.875513,10.414204,14.274117,0.112636,0.156426,-0.067416,7.820000,31.894634

-2.679281,0.650382,10.301638,14.277058,-0.060564,0.089811,-0.064485,7.816000,31.894634

-0.729735,1.510194,10.277688,14.265293,-0.023793,0.060766,0.015986,7.820000,31.894634

0.491725,2.710098,10.009445,14.253529,0.078263,-0.013044,-0.110317,7.820000,31.894634

-1.261430,2.049073,9.913645,14.271175,0.167261,-0.013310,-0.116445,7.816000,31.907681

0.412689,1.771251,9.501701,14.274117,0.011913,0.000546,-0.024249,7.820000,31.907681

0.338444,1.059930,8.467052,14.274117,0.043889,-0.072998,-0.032510,7.816000,31.907681

-0.803981,1.689820,8.843071,14.259411,-0.014733,-0.041289,0.004529,7.820000,31.907681

-0.820746,0.973709,9.324470,14.271175,-0.050705,-0.044220,0.091928,7.820000,31.907681

0.479750,1.110225,8.871811,14.274117,-0.061364,-0.118030,0.107916,7.820000,31.907681

-1.500932,0.166588,9.415481,14.271175,-0.054702,0.006674,0.132963,7.820000,31.907681

-0.947682,1.388048,9.769943,14.268234,-0.063495,0.027991,0.116976,7.820000,31.907681

-0.224386,2.068233,8.905341,14.259411,0.046287,-0.057010,0.138826,7.816000,31.907681

0.333654,1.570069,9.408296,14.268234,0.072933,-0.082058,0.098057,7.820000,31.907681

-0.032785,1.378468,10.129196,14.279999,0.040958,-0.075130,0.072476,7.824000,31.907681

0.316888,2.329290,7.731781,14.271175,0.093717,-0.059142,0.081536,7.820000,31.907681

1.009049,0.815638,8.045529,14.277058,0.099580,-0.085522,0.079138,7.820000,31.907681

0.623451,1.941297,9.223879,14.265293,-0.023793,-0.019705,0.106317,7.820000,31.907681

0.721647,1.670660,9.084968,14.274117,0.037760,-0.034894,0.084734,7.816000,31.907681

-0.413593,1.991592,9.240644,14.271175,0.103843,-0.006116,0.104985,7.824000,31.907681

-0.071105,2.159244,10.361513,14.259411,0.005785,0.005875,0.134829,7.820000,32.094040

0.968334,1.241951,9.825029,14.262352,-0.034718,-0.012244,0.112446,7.824000,32.094040

-0.107030,1.859866,9.880115,14.268234,-0.043244,-0.026900,0.113245,7.824000,32.094040

-0.468678,2.061048,9.171188,14.279999,-0.029122,-0.021571,0.148152,7.820000,32.094040

-0.856671,1.194051,9.913645,14.250587,-0.047774,0.012004,0.163340,7.824000,32.094040

-0.119005,1.388048,10.715977,14.268234,0.021772,0.008007,0.185457,7.824000,32.094040

-0.490233,2.370006,9.980705,14.268234,0.045221,0.053572,0.183858,7.828000,32.094040

-0.918942,1.543724,8.661049,14.265293,0.086789,-0.023436,0.133763,7.824000,32.094040

-1.510512,-0.101654,9.628637,14.238823,-0.061097,-0.034894,0.125502,7.828000,32.094040

0.585131,1.081485,9.072993,14.259411,0.021506,-0.030897,0.120706,7.828000,32.094040

0.506095,1.610784,10.840517,14.259411,0.030566,-0.069267,0.092195,7.832000,32.094040

-0.538134,2.451436,9.904064,14.271175,0.123295,0.009605,0.126035,7.828000,32.094040

-0.583639,1.376073,9.111313,14.268234,0.078795,0.005076,0.068213,7.824000,32.094040

-0.164511,1.879027,9.575947,14.265293,-0.028855,0.011204,0.054890,7.828000,32.094040

0.824632,1.632339,10.826147,14.279999,-0.030721,0.011471,0.063950,7.824000,32.094040

0.410294,1.843101,11.161449,14.259411,-0.048574,0.063431,0.075141,7.828000,32.094040

0.757572,2.772369,10.768666,14.250587,0.030832,0.035186,0.084201,7.824000,32.274338

0.769547,1.510194,9.008327,14.268234,-0.012601,-0.026633,0.078872,7.828000,32.274338

-0.669860,1.407208,9.513677,14.262352,-0.006739,-0.120961,0.015986,7.824000,32.274338

-1.256639,1.467083,9.456196,14.253529,0.024437,-0.086854,0.018651,7.824000,32.274338

-0.339347,0.971314,8.823911,14.262352,-0.011002,-0.055145,0.121772,7.828000,32.274338

0.417479,0.980894,8.632309,14.277058,0.000189,-0.030097,0.150816,7.828000,32.274338

-0.655490,1.112620,9.540022,14.256470,-0.018463,-0.038891,0.116176,7.832000,32.274338

-0.866251,1.450318,9.477751,14.271175,-0.010469,0.047177,0.189720,7.828000,32.274338

-1.644633,1.720955,10.287268,14.268234,-0.032852,-0.005050,0.195316,7.828000,32.274338

-1.438661,0.159403,10.510005,14.253529,-0.052304,0.003477,0.242480,7.828000,32.274338

-0.245941,1.871841,10.201047,14.268234,0.009782,-0.050615,0.240081,7.828000,32.274338

-0.768055,2.647828,9.554392,14.259411,0.088921,0.078886,0.242746,7.828000,32.274338

-0.322582,0.813243,9.508886,14.259411,0.042557,-0.022104,0.173732,7.832000,32.274338

-0.724945,1.385653,9.913645,14.259411,-0.010203,0.022929,0.154547,7.828000,32.274338

-0.186066,1.244346,10.598620,14.265293,-0.094405,0.095406,0.160409,7.832000,32.274338

-0.095055,2.259835,10.742321,14.268234,-0.030188,0.107930,0.222228,7.832000,32.274338

0.637821,2.068233,10.107641,14.265293,-0.042445,0.096739,0.227558,7.832000,32.435215

0.400714,1.376073,9.207114,14.268234,-0.020595,0.124451,0.187855,7.832000,32.435215

-0.562084,1.637130,9.243039,14.262352,0.053748,0.061299,0.151349,7.828000,32.435215

-1.932035,0.849168,9.180769,14.265293,-0.018996,0.107930,0.089797,7.832000,32.435215

-1.215924,-0.242961,9.506492,14.274117,-0.099734,0.041847,0.101254,7.828000,32.435215

1.028209,1.064720,10.004656,14.279999,-0.040846,-0.022370,0.099123,7.836000,32.435215

0.977914,2.633458,9.889694,14.250587,0.015910,0.001079,0.103120,7.836000,32.435215

0.728832,2.942415,9.331655,14.259411,0.155004,0.032788,0.070878,7.832000,32.435215

-0.811166,1.871841,9.647798,14.262352,0.012713,0.140971,0.115110,7.832000,32.435215

-0.902177,0.676727,10.359118,14.244705,-0.013401,0.115391,0.127368,7.836000,32.435215

-0.303422,1.768856,10.210628,14.277058,0.001521,0.096472,0.118042,7.832000,32.435215

0.762362,1.155731,9.187954,14.268234,0.093984,0.169749,0.099123,7.832000,32.435215

-0.744105,1.361702,9.566367,14.265293,0.012180,0.102867,0.049561,7.832000,32.435215

-0.578849,1.823941,9.168794,14.256470,0.024704,0.059700,0.023447,7.828000,32.435215

0.259408,1.613179,8.962822,14.253529,0.033497,-0.046885,-0.052228,7.832000,32.435215

0.915643,2.061048,9.722043,14.259411,0.092119,-0.092450,-0.031444,7.832000,32.435215

0.350419,1.428763,10.907578,14.250587,0.005518,0.014135,-0.033842,7.832000,32.435215

-0.332162,1.816756,10.076506,14.247646,-0.046175,0.035985,0.003729,7.832000,32.597705

-1.067433,0.693492,9.369975,14.253529,0.004719,0.009073,0.073276,7.832000,32.597705

-2.042206,1.067115,9.286150,14.274117,-0.028056,-0.010379,0.042100,7.832000,32.597705

-1.328490,0.300709,9.269384,14.244705,-0.052837,-0.021837,0.039169,7.836000,32.597705

-0.626749,0.808453,9.705278,14.230000,-0.007005,0.036252,0.115643,7.836000,32.597705

-0.653095,1.404813,9.336445,14.253529,-0.026191,0.040515,0.099123,7.836000,32.597705

-0.281867,2.164034,9.597502,14.247646,-0.007005,0.010671,0.112446,7.840000,32.597705

0.113312,0.729417,10.026211,14.247646,-0.060831,0.002677,0.162274,7.836000,32.597705

0.530045,2.247860,9.571157,14.268234,0.021772,0.051707,0.146819,7.836000,32.597705

0.063016,1.107830,8.622729,14.268234,0.044422,0.118056,0.137493,7.836000,32.597705

-0.801586,1.340147,7.865902,14.250587,-0.004341,0.101269,0.075940,7.832000,32.597705

-0.614774,1.074300,10.213022,14.244705,-0.017397,0.022396,0.031441,7.836000,32.597705

0.247433,1.457503,10.941108,14.250587,0.092652,-0.073797,-0.036507,7.836000,32.597705

-0.401617,2.853800,6.093588,14.244705,-0.056567,0.106331,0.044764,7.836000,32.597705

0.589921,0.149823,7.444379,14.244705,-0.226304,0.021596,0.003729,7.836000,32.597705

0.240248,0.128267,10.799802,14.238823,-0.024326,-0.030897,0.017319,7.836000,32.597705

0.357604,0.592901,10.912368,14.247646,0.023371,-0.020238,0.058087,7.836000,32.597705

-1.117728,1.316197,9.178373,14.253529,-0.036050,0.065563,0.077273,7.836000,32.597705

-1.625473,1.859866,8.541298,14.244705,-0.063495,0.045578,0.074875,7.840000,32.597705

-0.497418,0.880304,9.022697,14.250587,-0.014999,-0.012777,0.057288,7.840000,32.597705

-0.245941,0.480335,9.798684,14.238823,-0.031254,-0.056477,0.000265,7.836000,32.597705

0.637821,1.895792,10.138777,14.247646,-0.084280,-0.014643,0.020516,7.836000,32.597705

0.982704,0.760553,9.104128,14.256470,0.048952,-0.007448,0.023181,7.840000,32.597705

-0.466283,0.746182,10.246552,14.241764,0.153139,0.087945,0.031441,7.840000,32.597705

-0.032785,3.929163,9.346025,14.256470,0.092918,0.049841,0.049561,7.844000,32.597705

0.709672,2.283785,8.960427,14.265293,0.065472,0.124984,0.055423,7.844000,32.597705

-0.133375,1.567674,8.740085,14.259411,0.046554,0.076488,-0.007729,7.844000,32.597705

-0.887806,0.822823,11.575788,14.244705,0.030832,0.098604,-0.055692,7.840000,32.597705

-1.611102,0.961734,10.131592,14.265293,0.012180,0.091143,-0.068482,7.840000,32.597705

-0.899782,1.766461,10.057346,14.235882,0.047353,0.083416,-0.019187,7.844000,32.597705

-0.633934,1.409603,10.682446,14.235882,-0.024059,0.058901,-0.072746,7.844000,32.597705

-0.353717,0.604876,9.810658,14.250587,-0.072022,0.070092,-0.145223,7.836000,32.597705

-0.427963,1.742511,9.573552,14.256470,-0.066160,0.026659,-0.095395,7.840000,32.597705

-0.459098,2.262230,9.257409,14.244705,-0.007538,0.048775,-0.123640,7.840000,32.597705

-0.825536,0.166588,8.421547,14.247646,-0.035517,0.026393,-0.125505,7.840000,32.597705

-1.182394,0.540211,8.974797,14.244705,-0.071489,-0.021571,-0.079674,7.844000,32.597705

-1.493746,0.554581,9.281360,14.247646,-0.109061,0.031988,-0.030378,7.840000,32.597705

-0.226781,2.238280,9.597502,14.244705,-0.027257,0.041314,-0.010926,7.844000,32.597705

-0.380062,1.838311,8.488607,14.244705,0.019108,0.005342,-0.020785,7.844000,32.597705

-0.933312,2.255045,10.167517,14.250587,-0.026191,-0.046352,-0.061554,7.844000,32.597705

-1.007557,1.182076,9.580737,14.253529,0.060676,-0.006915,-0.008262,7.844000,32.597705

0.261803,0.315079,10.007051,14.253529,-0.014466,-0.083923,0.011723,7.844000,32.597705

-0.722550,2.446646,8.035949,14.256470,0.035895,-0.022104,0.007993,7.844000,32.597705

-0.332162,0.183353,9.492122,14.253529,-0.014999,-0.033029,0.010657,7.840000,32.597705

-1.587152,0.834798,10.421389,14.259411,-0.042711,0.045045,-0.002133,7.844000,32.597705

0.407899,2.815479,10.059741,14.235882,0.164063,-0.012511,-0.014923,7.844000,32.597705

0.496515,2.472991,8.917316,14.250587,0.061742,-0.085788,-0.018920,7.844000,32.597705

-1.069828,1.452713,9.211904,14.262352,0.030832,0.026393,0.076740,7.844000,10.912217

-0.997977,0.348609,10.035790,14.250587,0.021240,0.022662,0.138826,7.844000,10.912217

-1.297355,1.512589,9.664562,14.262352,-0.065094,-0.040490,0.126302,7.848000,10.912217

-0.710575,2.597533,9.535232,14.256470,0.015910,-0.125491,0.142290,7.848000,10.912217

-1.115333,0.458780,8.924501,14.250587,-0.042445,-0.052214,0.182792,7.848000,10.912217

-1.211134,0.367769,10.519585,14.268234,-0.003009,-0.065803,0.177463,7.848000,10.912217

-0.739315,1.093460,9.566367,14.277058,-0.056567,-0.095914,0.194516,7.844000,10.912217

-0.969237,1.371283,9.748388,14.265293,-0.009137,-0.066070,0.205175,7.848000,10.912217

-0.993187,0.655172,10.605805,14.256470,0.045221,-0.035160,0.188654,7.848000,10.912217

0.472565,0.420460,9.633428,14.262352,-0.075220,-0.057543,0.147352,7.848000,10.912217

0.012721,1.929322,7.923383,14.274117,0.077996,-0.021837,0.112179,7.844000,10.912217

0.055831,0.576136,8.867022,14.268234,-0.087477,-0.071666,0.098323,7.844000,10.912217

0.462985,1.802386,9.178373,14.262352,0.024437,-0.054346,0.036238,7.848000,10.912217

1.603014,2.178404,9.616662,14.262352,0.116367,-0.119895,0.074342,7.848000,10.912217

1.935922,2.456226,9.650192,14.262352,0.029766,-0.015176,0.088198,7.852000,10.912217

1.459313,2.209539,9.391530,14.265293,0.032697,0.040249,0.057821,7.852000,33.162510

-0.116610,1.241951,9.017907,14.268234,-0.043777,0.040515,0.042899,7.856000,33.162510

-1.429081,1.586834,9.848979,14.238823,-0.081881,-0.036759,0.024247,7.852000,33.162510

-0.483048,1.246742,9.698093,14.247646,-0.043777,-0.015442,0.078072,7.848000,33.162510

-1.235084,0.204908,9.700488,14.253529,-0.038981,0.011737,0.038103,7.848000,33.162510

-2.178722,1.237161,10.031001,14.244705,-0.090408,0.047443,0.135895,7.848000,33.162510

-0.188461,2.123319,10.313613,14.259411,0.037227,-0.017840,0.152149,7.848000,33.162510

-0.056735,1.536539,9.365185,14.253529,0.004719,-0.004784,0.144421,7.852000,33.162510

-1.663793,1.268297,9.760364,14.259411,0.018575,-0.052747,0.146819,7.848000,33.162510

-0.257916,1.256322,9.698093,14.230000,0.108373,-0.018373,0.193184,7.852000,33.162510

0.920433,0.731812,9.623847,14.247646,-0.009404,-0.020238,0.170268,7.856000,33.162510

-0.753685,2.705308,9.082573,14.244705,0.192042,0.121253,0.149484,7.856000,33.162510

0.870138,1.091065,8.191626,14.256470,-0.007005,-0.102042,0.095659,7.852000,33.162510

0.233063,2.056258,9.916039,14.238823,0.080661,-0.034894,0.043432,7.852000,33.162510

1.200651,1.895792,10.301638,14.241764,0.116367,-0.001852,0.050094,7.856000,33.162510

0.898878,2.034703,10.742321,14.256470,0.024437,0.038650,0.085000,7.856000,33.162510

1.282081,2.135294,9.654983,14.250587,0.047619,0.084748,0.106584,7.856000,33.526181

0.374369,1.467083,8.797565,14.247646,0.003387,0.043979,0.080470,7.856000,33.526181

-0.935707,1.335357,8.998747,14.259411,-0.066427,0.021863,0.089797,7.856000,33.526181

-0.873436,0.327054,9.844189,14.253529,0.022039,0.041048,0.116709,7.860000,33.526181

-0.794401,1.294642,8.519743,14.250587,0.097181,0.123385,0.163607,7.856000,33.526181

-1.067433,0.425250,8.780800,14.250587,-0.014466,0.078619,0.146020,7.856000,33.526181

-1.144074,1.546119,9.820239,14.247646,-0.078950,0.087679,0.148951,7.856000,33.526181

-0.847091,1.950877,9.197534,14.262352,0.014578,0.090876,0.136161,7.852000,33.526181

-1.160839,1.349727,9.726833,14.244705,-0.041912,0.112193,0.131098,7.852000,33.526181

-1.280590,1.126991,10.828542,14.250587,-0.029388,0.106331,0.116443,7.860000,33.526181

-0.875831,0.475545,12.900234,14.230000,-0.062963,0.092475,0.117775,7.860000,33.526181

-0.542924,3.318433,9.283754,14.241764,0.047619,0.110595,0.096725,7.856000,33.526181

-0.226781,1.335357,8.481422,14.238823,-0.009670,0.154561,0.044764,7.856000,33.526181

-1.103358,0.367769,10.423784,14.215292,-0.009137,0.040515,0.002130,7.856000,33.526181

0.096547,0.597691,10.459709,14.215292,0.027368,0.056769,-0.015456,7.856000,33.526181

-1.144074,2.128109,9.815449,14.256470,0.001521,0.127915,-0.029845,7.860000,33.931791

-1.654213,2.101763,8.694579,14.256470,0.004719,0.100203,-0.030378,7.856000,33.931791

-1.359625,1.150941,9.609477,14.238823,-0.045643,0.053305,0.016519,7.860000,33.931791

-0.415988,0.803663,11.194981,14.241764,-0.067226,0.011737,0.006127,7.864000,33.931791

-1.544042,2.444251,11.008168,14.250587,0.032964,0.047177,0.007726,7.860000,33.931791

-1.426686,0.865933,8.948452,14.235882,0.088122,-0.019972,0.033573,7.864000,33.931791

-2.063761,0.863538,8.079060,14.232941,-0.047508,0.029857,0.036770,7.860000,33.931791

-1.663793,1.117410,9.633428,14.232941,-0.013933,0.023195,0.024780,7.864000,33.931791

0.350419,1.656290,10.730347,14.250587,-0.036316,-0.002652,0.013588,7.856000,33.931791

-0.059130,0.288734,11.697934,14.232941,-0.066160,-0.020771,0.026911,7.860000,33.931791

-2.099686,3.519615,8.962822,14.227058,0.002854,0.090077,0.075674,7.860000,33.931791

-0.708180,0.391720,9.760364,14.238823,-0.036583,0.048509,0.045564,7.864000,33.931791

-1.730853,0.458780,8.845466,14.244705,-0.066693,-0.001320,0.024247,7.860000,33.931791

-0.806376,0.897069,8.265871,14.244705,-0.037382,0.024261,0.046363,7.860000,33.931791

-1.122518,0.346214,10.174702,14.230000,-0.025125,-0.005583,0.073276,7.864000,33.931791

-1.498536,2.132899,10.071716,14.235882,0.023904,0.045311,0.074608,7.864000,34.196437

-1.615892,1.675450,9.822634,14.238823,0.031632,0.017599,0.154547,7.864000,34.196437

-0.746500,1.435948,9.987890,14.253529,0.020174,-0.056744,0.151616,7.864000,34.196437

0.065411,1.299432,8.749665,14.247646,-0.025391,-0.058609,0.179328,7.868000,34.196437

-0.672255,1.538934,9.111313,14.247646,-0.051238,-0.060474,0.191052,7.864000,34.196437

-0.447123,1.464688,9.633428,14.241764,0.009249,-0.107638,0.168936,7.868000,34.196437

1.191071,0.147428,9.223879,14.241764,-0.002476,-0.068468,0.292574,7.864000,34.196437

0.994679,2.358031,9.027488,14.244705,-0.013401,-0.008780,0.185457,7.868000,34.196437

0.522860,1.265902,9.767549,14.218235,0.036161,-0.026101,0.203043,7.868000,34.196437

1.054554,1.227581,9.209509,14.259411,0.003920,0.005342,0.202244,7.864000,34.196437

0.213903,2.049073,8.833491,14.253529,0.168327,0.092742,0.195316,7.872000,34.196437

0.568365,1.172496,8.965217,14.230000,-0.103998,-0.039157,0.121239,7.864000,34.196437

-0.092660,2.214329,10.050160,14.235882,0.030832,0.032788,0.095925,7.868000,34.196437

-1.002767,0.659962,9.951965,14.247646,-0.019529,0.149498,0.087398,7.868000,34.196437

0.357604,1.550909,9.106524,14.241764,-0.022993,0.197994,0.071411,7.868000,34.196437

-0.042365,2.288575,9.171188,14.244705,-0.046442,0.310974,0.010924,7.868000,34.561147

0.106127,2.204749,9.173584,14.241764,0.035362,0.091409,-0.038905,7.872000,34.561147

0.549205,1.189261,9.374765,14.253529,-0.029388,0.048775,-0.023450,7.868000,34.561147

-0.016019,1.119806,9.947175,14.253529,0.002587,0.069559,-0.029046,7.864000,34.561147

-0.535739,1.879027,9.877720,14.224117,0.062541,0.067161,-0.056225,7.868000,34.561147

-2.327213,0.281549,9.837004,14.235882,0.004985,0.073823,-0.023716,7.868000,34.561147

-1.124913,2.731653,10.047766,14.247646,0.019641,0.120987,0.016786,7.872000,34.561147

-0.437543,0.988079,9.171188,14.247646,-0.019796,0.045578,-0.002399,7.872000,34.561147

0.958754,1.816756,9.449011,14.250587,0.014844,0.039716,0.000798,7.868000,34.561147

0.702486,1.917347,9.377160,14.244705,0.108373,0.112193,-0.019720,7.872000,34.561147

-0.607589,2.056258,8.713739,14.268234,-0.072022,0.010138,-0.027713,7.868000,34.561147

-0.899782,1.043165,11.326706,14.247646,-0.015799,-0.021571,-0.049297,7.872000,34.561147

-0.643515,1.162916,11.429692,14.253529,-0.014466,-0.074064,-0.056491,7.868000,34.561147

0.240248,1.603599,9.911250,14.244705,-0.048574,-0.110036,-0.010926,7.872000,34.561147

0.307308,1.364097,9.506492,14.253529,0.000988,-0.030097,-0.014657,7.872000,34.561147

-0.902177,1.349727,9.025092,14.244705,0.015377,-0.041555,0.049294,7.872000,34.773104

-0.542924,1.342542,8.582014,14.224117,-0.033385,-0.091917,0.023181,7.872000,34.773104

-0.449518,0.839588,9.468171,14.218235,-0.009137,-0.141479,0.064749,7.872000,34.773104

-0.576454,1.984407,10.050160,14.235882,0.036961,0.005342,0.122038,7.872000,34.773104

-1.659003,1.227581,10.239367,14.221176,0.061742,0.033854,0.131631,7.872000,34.773104

-1.182394,0.662357,8.627519,14.232941,-0.040846,0.008273,0.148951,7.872000,34.773104

-0.873436,1.366493,10.383068,14.224117,-0.062163,-0.020771,0.209172,7.872000,34.773104

-0.224386,2.106554,10.311218,14.215292,0.029766,-0.023436,0.161741,7.876000,34.773104

-0.313002,0.640802,9.075388,14.238823,0.068670,-0.095647,0.188921,7.872000,34.773104

-0.176486,-0.113630,10.057346,14.215292,0.050817,-0.050349,0.176397,7.872000,34.773104

2.503541,1.941297,9.101733,14.212351,0.044155,-0.126823,0.120440,7.872000,34.773104

-0.253126,2.480176,10.145962,14.227058,0.024704,-0.017840,0.055423,7.876000,34.773104

-0.004044,1.629945,9.916039,14.218235,0.018841,-0.094048,0.108715,7.872000,34.773104

0.359999,1.263507,9.367580,14.235882,0.027635,0.006674,0.118308,7.876000,34.773104

-1.714088,1.225186,9.537626,14.227058,0.028967,-0.008514,0.148418,7.872000,35.064987

-1.498536,1.464688,9.585527,14.238823,-0.006206,-0.023969,0.135628,7.876000,35.064987

-1.697323,1.055140,9.346025,14.244705,0.061742,-0.045552,0.159077,7.876000,35.064987

0.331258,2.161639,8.900552,14.221176,0.038293,-0.007981,0.224893,7.876000,35.064987

-0.236361,1.103040,9.549602,14.230000,0.052949,0.060233,0.152149,7.876000,35.064987

-0.883016,1.407208,9.920830,14.230000,-0.021661,-0.046085,0.186789,7.876000,35.064987

-0.456703,2.793924,9.523256,14.221176,0.107573,-0.128689,0.176663,7.876000,35.064987

-0.075895,0.853958,8.392807,14.215292,0.077996,-0.180116,0.200112,7.876000,35.064987

0.628241,0.109107,9.487331,14.238823,-0.066960,-0.190774,0.236351,7.872000,35.064987

-1.189579,0.868328,12.045212,14.224117,0.100645,0.132445,0.252872,7.876000,35.064987

-2.121242,2.355635,9.396320,14.209410,-0.051238,0.101535,0.205441,7.876000,35.064987

-0.581244,1.347332,9.796288,14.212351,-0.006473,0.103667,0.185457,7.876000,35.064987

0.367184,0.894674,9.647798,14.221176,-0.060031,-0.029298,0.117242,7.880000,35.064987

1.737135,1.682635,8.764035,14.238823,-0.010203,-0.016774,0.153215,7.876000,35.064987

0.886903,1.661080,9.765154,14.224117,0.099313,0.038117,0.131098,7.880000,35.064987

0.300123,2.101763,9.542417,14.215292,-0.014466,0.079952,0.132963,7.880000,35.339489

-1.014742,0.973709,9.441826,14.238823,-0.032586,-0.025301,0.084201,7.876000,35.339489

-0.298632,0.556976,9.310100,14.218235,-0.050972,0.003210,0.123904,7.880000,35.339489

-1.407526,1.112620,10.857283,14.215292,-0.107995,0.042114,0.083934,7.880000,35.339489

-0.214806,1.335357,10.629756,14.230000,-0.065094,0.051973,0.150284,7.880000,35.339489

-0.574059,2.317315,9.664562,14.230000,0.068936,0.066628,0.131365,7.880000,35.339489

-1.350045,0.535421,8.517348,14.230000,0.000189,0.051174,0.123637,7.880000,35.339489

-0.384852,0.276759,10.021420,14.224117,-0.145033,0.065829,0.175597,7.880000,35.339489

0.724042,1.160521,9.604687,14.212351,-0.037915,0.097805,0.166538,7.880000,35.339489

-0.346532,2.259835,8.744875,14.235882,0.075864,0.116990,0.173732,7.876000,35.339489

-0.621959,0.362979,9.367580,14.227058,-0.059765,0.086080,0.078072,7.880000,35.339489

0.642611,2.717283,10.270503,14.209410,0.043356,0.070625,0.080470,7.880000,35.339489

1.794616,1.840706,9.738809,14.209410,0.002054,0.096472,0.094593,7.880000,35.339489

2.460431,2.027518,8.919712,14.227058,-0.041113,0.043979,0.037037,7.880000,35.339489

-1.120123,1.857471,9.848979,14.227058,0.049751,0.215048,0.073009,7.880000,35.559220

-1.393156,1.229976,9.745994,14.221176,0.000988,0.178010,0.042633,7.880000,35.559220

-1.366810,0.494705,9.882509,14.238823,0.020174,0.143636,0.028510,7.880000,35.559220

0.127682,1.617970,9.295730,14.238823,0.042024,0.172414,0.027977,7.880000,35.559220

-0.653095,1.220396,8.656260,14.215292,-0.016332,0.179076,0.042366,7.880000,35.559220

-1.359625,1.016820,9.480146,14.224117,-0.064828,0.118322,0.070078,7.880000,35.559220

-0.981212,1.744905,9.652588,14.232941,0.005252,0.128181,0.097524,7.884000,35.559220

-0.981212,1.110225,8.816726,14.227058,-0.044044,0.152696,0.087398,7.884000,35.559220

0.125287,0.679122,10.227392,14.227058,-0.100267,0.094873,0.116443,7.884000,35.559220

0.235458,0.274364,10.143566,14.221176,0.031632,0.135109,0.086599,7.884000,35.559220

-1.055458,3.131622,8.081454,14.203527,0.017776,0.179076,0.045297,7.884000,35.559220

-0.545319,0.475545,9.065807,14.227058,-0.102133,0.213449,0.037570,7.884000,35.559220

-0.590824,1.241951,9.334050,14.203527,-0.123450,0.186004,-0.035174,7.884000,35.559220

0.645006,1.150941,9.149633,14.218235,0.015377,0.148166,-0.011726,7.884000,35.559220

-1.809889,2.223909,9.496911,14.212351,-0.036583,0.128448,-0.107652,7.884000,35.936438

-0.971632,1.503009,9.796288,14.218235,-0.044310,0.073024,-0.143891,7.888000,35.936438

0.154027,1.194051,9.305309,14.227058,-0.026457,0.046910,-0.156948,7.884000,35.936438

-0.454308,1.730535,9.360395,14.235882,-0.069624,0.038916,-0.122574,7.888000,35.936438

-0.495023,1.498219,9.008327,14.218235,-0.038981,0.042380,-0.108984,7.884000,35.936438

-0.066315,0.753367,9.401111,14.221176,-0.040846,0.045844,-0.118844,7.888000,35.936438

-0.938102,0.715047,8.208390,14.232941,-0.062430,-0.039690,-0.138828,7.888000,35.936438

0.750387,1.189261,9.798684,14.209410,-0.148497,-0.034627,-0.135098,7.884000,35.936438

1.437757,1.529354,9.439431,14.221176,-0.008604,-0.016241,-0.112715,7.880000,35.936438

0.951569,2.389166,9.300520,14.224117,0.057478,-0.039424,-0.122574,7.888000,35.936438

-0.473468,1.859866,7.918593,14.215292,-0.016598,-0.117231,-0.095395,7.884000,35.936438

0.678536,2.171219,10.153147,14.230000,-0.021128,0.078353,-0.085536,7.888000,35.936438

-0.011229,0.988079,9.930409,14.215292,0.036428,-0.001852,-0.100458,7.888000,35.936438

-0.514183,1.411998,9.468171,14.218235,0.011647,0.027458,-0.053027,7.888000,35.936438

-1.362020,1.749696,9.005932,14.197645,0.076397,0.063431,-0.029845,7.888000,36.062431

-1.481771,0.695887,9.939990,14.212351,-0.022993,-0.032762,-0.025315,7.892000,36.062431

-0.092660,0.722232,8.167675,14.218235,0.104909,-0.110836,-0.030645,7.892000,36.062431

0.371974,0.834798,9.501701,14.230000,-0.058699,-0.232609,-0.005064,7.892000,36.062431

-1.122518,2.995106,9.928015,14.212351,0.072400,-0.078061,0.042899,7.892000,36.062431

-0.231571,1.799991,8.342512,14.218235,0.087056,-0.062872,0.116709,7.888000,36.062431

-0.104635,1.007240,9.369975,14.218235,-0.054436,-0.046618,0.094859,7.888000,36.062431

-0.051945,2.108948,9.710068,14.206469,-0.074687,-0.118829,0.127368,7.888000,36.062431

0.762362,0.947364,8.682605,14.221176,-0.023260,-0.120162,0.158011,7.888000,36.062431

-0.667465,1.119806,10.802197,14.197645,-0.121584,-0.058076,0.190519,7.888000,36.062431

-1.606312,1.917347,8.960427,14.203527,-0.054436,0.016533,0.190519,7.888000,36.062431

-0.775241,0.944969,9.451406,14.200586,0.008716,0.013069,0.171334,7.888000,36.062431

-1.285380,0.430040,9.449011,14.212351,-0.144234,-0.057010,0.048228,7.888000,36.062431

1.056949,0.264784,9.731624,14.200586,-0.204454,-0.065271,0.081803,7.888000,36.062431

-0.308212,2.295760,9.252620,14.191763,0.054547,0.029590,0.029043,7.892000,36.062431

-0.509393,0.746182,8.649075,14.197645,-0.094139,0.002411,0.012522,7.892000,36.246843

-0.152535,0.513866,9.132869,14.209410,-0.009137,-0.059675,0.031974,7.892000,36.246843

-1.469796,1.507799,9.317285,14.212351,0.077996,-0.007182,0.040501,7.892000,36.246843

-1.146469,1.601204,8.546088,14.206469,-0.064295,0.039716,0.053558,7.896000,36.246843

-0.689020,0.659962,10.842913,14.209410,-0.113324,-0.007981,0.085533,7.892000,36.246843

-0.406408,2.329290,10.720766,14.212351,0.059610,0.066895,0.111646,7.896000,36.246843

0.041461,1.062325,9.022697,14.209410,0.012713,0.061832,0.071144,7.896000,36.246843

-0.921337,-1.153068,9.693303,14.200586,-0.009404,0.080751,0.078339,7.892000,36.246843

-1.462611,0.446805,9.923224,14.209410,0.082792,0.125250,0.043965,7.896000,36.246843

-0.899782,1.828731,8.155700,14.209410,0.016976,0.201192,0.007193,7.896000,36.246843

0.034276,0.710257,7.343788,14.197645,-0.168215,0.069293,-0.010393,7.896000,36.246843

-0.145350,1.510194,9.916039,14.188822,-0.007805,0.213716,-0.078341,7.896000,36.246843

0.465380,1.371283,11.638059,14.218235,-0.033385,0.079952,-0.089533,7.892000,36.246843

0.122892,1.225186,10.488449,14.203527,-0.066693,0.108996,-0.113248,7.896000,36.246843

-0.401617,2.690938,10.701606,14.191763,0.014045,0.117523,-0.143891,7.900000,36.246843

-0.308212,0.650382,10.615385,14.197645,-0.032319,0.087679,-0.147355,7.896000,36.246843

0.283358,0.465965,9.580737,14.215292,0.068137,0.081017,-0.135098,7.900000,36.246843

-0.004044,0.810848,5.945097,14.200586,-0.145299,-0.042621,-0.147355,7.896000,36.246843

-0.540529,1.129385,9.731624,14.221176,-0.058433,-0.001852,-0.090066,7.900000,36.246843

-0.406408,0.858748,10.361513,14.212351,-0.008338,-0.000254,-0.035174,7.896000,36.246843

0.240248,1.943692,10.081296,14.206469,-0.007538,-0.004251,0.001331,7.896000,36.246843

-0.063920,2.633458,10.989009,14.206469,0.098514,0.055437,0.016786,7.896000,36.246843

0.688116,2.456226,9.381950,14.197645,0.089454,-0.008514,0.002663,7.900000,36.246843

-0.334557,-0.190270,9.183164,14.206469,-0.215379,-0.183580,-0.038105,7.900000,36.246843

-0.336952,1.239557,9.599897,14.209410,-0.006473,-0.050349,-0.050629,7.900000,36.246843

0.551600,0.058812,9.978311,14.215292,0.038560,-0.091117,-0.001600,7.900000,36.246843

0.599501,2.398746,9.961545,14.206469,0.054281,-0.022637,0.023980,7.900000,36.246843

-1.548832,3.550750,9.853769,14.191763,0.074799,0.016001,0.041567,7.900000,18.572971

-1.060248,0.762947,8.893367,14.200586,0.110771,-0.092450,0.081270,7.900000,18.572971

0.022301,0.782108,9.492122,14.212351,0.041224,-0.152137,0.143089,7.900000,18.572971

0.058226,1.634735,9.688513,14.218235,-0.020595,-0.098845,0.164406,7.904000,18.572971

0.271383,1.639525,10.265713,14.212351,0.012180,-0.023702,0.217166,7.900000,18.572971

-0.063920,1.833521,10.378279,14.197645,0.148342,-0.079393,0.215833,7.904000,18.572971

-0.198041,0.542606,9.362790,14.215292,0.074266,-0.135084,0.174265,7.904000,18.572971

0.156422,1.543724,8.663445,14.209410,-0.040846,-0.131886,0.142556,7.904000,18.572971

-0.293842,-0.113630,8.105405,14.194704,0.010048,-0.019173,0.150816,7.900000,18.572971

-0.387247,0.786898,10.883628,14.206469,-0.099468,-0.059408,0.187855,7.904000,18.572971

0.108522,1.033585,8.318562,14.221176,-0.025924,-0.021571,0.097257,7.904000,18.572971

-1.347650,1.788016,10.169911,14.200586,-0.022993,0.061299,0.077006,7.904000,18.572971

0.726437,1.031190,9.599897,14.197645,0.015111,0.015201,0.082069,7.904000,18.572971

-0.317792,1.560489,10.936318,14.206469,0.083858,0.114858,0.059153,7.900000,18.572971

-1.977540,2.935230,6.503137,14.188822,-0.065894,0.089811,0.015187,7.904000,38.103839

-0.471073,-2.259567,10.081296,14.197645,-0.052038,-0.002385,-0.009061,7.904000,38.103839

-0.653095,1.608389,11.657219,14.194704,-0.053370,0.063697,-0.025315,7.904000,38.103839

-0.344137,1.299432,10.488449,14.197645,0.082792,0.120187,-0.033576,7.904000,38.103839

-0.681835,1.340147,8.289822,14.194704,-0.106129,0.090876,-0.016522,7.904000,38.103839

0.285753,2.983131,9.178373,14.185881,0.032431,0.046111,-0.035441,7.904000,38.103839

-1.100963,2.638248,9.132869,14.209410,-0.088809,0.069826,0.022382,7.904000,38.103839

0.115707,-0.839321,7.470724,14.194704,-0.158623,0.057835,0.030375,7.904000,38.103839

-0.059130,1.847891,9.068203,14.185881,0.009515,0.066362,-0.009860,7.900000,38.103839

-1.127308,2.556817,8.632309,14.203527,0.054014,0.040782,0.015453,7.904000,38.103839

0.975519,1.682635,7.501860,14.185881,-0.117854,-0.129222,-0.040504,7.904000,38.103839

0.367184,0.873118,13.103810,14.197645,-0.142635,0.049308,-0.039171,7.908000,38.103839

1.179096,2.046678,11.920671,14.188822,0.023904,0.101535,-0.009328,7.908000,38.103839

0.611476,1.203631,9.484936,14.194704,0.044155,0.071158,-0.011459,7.908000,38.103839

-2.217042,0.322264,7.772497,14.188822,-0.170613,0.032521,-0.034908,7.908000,37.811450

-1.299750,-1.270424,8.835886,14.209410,-0.053636,0.046644,-0.083404,7.904000,37.811450

-0.027994,-0.513598,8.701765,14.182940,0.086789,-0.020505,-0.104455,7.908000,37.811450

-0.602799,2.844219,8.658654,14.188822,-0.044843,0.027458,-0.075144,7.904000,37.811450

0.084571,3.653736,9.690907,14.203527,0.133154,0.069027,-0.055958,7.904000,37.811450

-1.453031,2.611902,9.834609,14.194704,0.028967,-0.021837,-0.001067,7.908000,37.811450

0.010326,0.506680,7.650351,14.203527,-0.047241,-0.067669,0.022914,7.904000,37.811450

-0.114215,-1.303954,8.986773,14.194704,-0.060298,-0.018640,0.073542,7.912000,37.811450

-0.904572,1.285062,10.553115,14.209410,-0.093339,0.075422,0.100721,7.904000,37.811450

-0.552504,1.965247,8.977192,14.191763,0.099313,0.114059,0.107383,7.908000,37.811450

-2.049391,-0.317206,9.963940,14.215292,0.022305,-0.009047,0.011457,7.908000,37.811450

0.283358,0.152218,10.639336,14.197645,-0.225505,-0.091384,-0.035441,7.908000,37.811450

-0.521369,1.883817,11.245275,14.200586,-0.005140,0.013336,0.041567,7.904000,37.811450

-1.189579,1.122200,8.292216,14.203527,-0.008604,0.048509,0.026378,7.908000,37.945882

-1.242269,-0.250146,9.762758,14.191763,-0.022993,0.014135,0.094859,7.908000,37.945882

-1.120123,1.069510,10.335168,14.200586,-0.009137,0.037850,0.040767,7.904000,37.945882

-1.309330,2.343660,9.899275,14.191763,0.172857,0.073823,0.072476,7.912000,37.945882

-1.007557,-1.155463,9.159214,14.194704,-0.223639,-0.007182,0.063683,7.912000,37.945882

-1.381181,2.219119,11.300361,14.200586,0.038826,0.064763,0.040767,7.912000,37.945882

0.144447,1.119806,9.437036,14.191763,0.054281,0.009073,0.045297,7.908000,37.945882

-0.518973,1.565279,9.384345,14.191763,0.067871,0.008806,0.041833,7.908000,37.945882

-1.136889,-1.500346,9.252620,14.200586,0.080394,0.066362,0.034372,7.908000,37.945882

0.427059,-0.108840,8.397597,14.200586,0.075864,0.037051,0.038369,7.908000,37.945882

0.422269,1.400023,9.877720,14.203527,-0.060298,-0.042088,-0.001067,7.908000,37.945882

1.667679,1.409603,9.003537,14.194704,0.012713,0.035719,-0.032776,7.912000,37.945882

1.368302,1.433553,9.578342,14.191763,-0.135707,0.011737,-0.003998,7.908000,37.945882

0.925223,1.984407,10.488449,14.197645,0.210694,0.140971,-0.022118,7.908000,37.945882

-0.377667,-0.060939,8.191626,14.197645,-0.033918,0.094873,-0.038372,7.908000,37.521689

-0.794401,1.912557,9.652588,14.215292,-0.046975,0.069293,-0.042902,7.908000,37.521689

0.156422,0.279154,9.276569,14.200586,0.067604,0.071691,-0.056491,7.908000,37.521689

0.412689,1.962852,10.409413,14.197645,0.156070,0.110328,-0.034641,7.908000,37.521689

-0.183671,0.070787,8.768826,14.200586,-0.178607,0.019997,-0.030911,7.908000,37.521689

-0.698600,0.798873,9.911250,14.200586,-0.022727,0.008007,-0.060222,7.908000,37.521689

0.556390,1.246742,9.343630,14.200586,-0.097336,0.014935,-0.056491,7.908000,37.521689

0.340838,1.503009,10.459709,14.200586,-0.049107,0.054105,-0.035974,7.908000,37.521689

0.122892,0.674332,9.726833,14.200586,0.093717,-0.045019,-0.091398,7.908000,37.521689

-0.514183,-0.475278,9.999866,14.200586,-0.131177,-0.051148,-0.109517,7.904000,37.521689

-1.967960,1.024005,9.743598,14.212351,0.006851,0.039982,-0.096727,7.904000,37.521689

-1.879345,-0.611794,9.437036,14.206469,-0.018463,0.031722,-0.165475,7.904000,37.521689

-2.169142,1.845496,11.597343,14.194704,-0.012335,0.010671,-0.174001,7.904000,37.521689

0.829423,-1.014157,8.780800,14.197645,0.092652,-0.027699,-0.163876,7.908000,37.521689

-0.308212,1.780831,10.059741,14.212351,-0.196993,0.038117,-0.181729,7.904000,37.521689

-1.797914,2.650223,9.405901,14.185881,-0.021927,0.082616,-0.194785,7.908000,36.583850

0.053436,0.113897,9.563972,14.209410,-0.053370,-0.045552,-0.187857,7.908000,36.583850

-0.906967,1.864656,10.236973,14.200586,-0.082681,0.033854,-0.130568,7.908000,36.583850

-1.829049,1.234766,10.028605,14.188822,-0.026457,0.043713,-0.121508,7.904000,36.583850

-1.112938,1.067115,9.913645,14.212351,0.119831,0.034919,-0.116179,7.908000,36.583850

-0.147745,-0.199850,9.082573,14.182940,-0.137306,-0.098312,-0.082605,7.908000,36.583850

-0.554899,1.306617,9.547207,14.203527,-0.137839,-0.057277,-0.077808,7.908000,36.583850

-0.075895,1.582044,11.091994,14.206469,0.147543,-0.094581,-0.058623,7.908000,36.583850

-0.351322,-0.477673,9.063413,14.206469,-0.023260,-0.183846,-0.096194,7.908000,36.583850

-0.914152,1.814361,9.116103,14.206469,0.059610,-0.202499,-0.087401,7.904000,36.583850

0.458195,2.080208,9.099339,14.212351,-0.013401,0.025060,-0.040770,7.912000,36.583850

0.953964,0.511470,8.754455,14.185881,-0.107728,-0.094315,-0.041303,7.908000,36.583850

0.745597,2.633458,10.313613,14.206469,0.092119,-0.057277,-0.048498,7.904000,36.583850

-0.413593,0.477940,8.275451,14.212351,0.000722,-0.063405,-0.059955,7.904000,36.005766

-0.162116,-0.130395,8.608358,14.215292,-0.036316,-0.111901,-0.025848,7.912000,36.005766

-1.084198,0.281549,8.981982,14.185881,-0.156224,-0.118297,-0.000268,7.904000,36.005766

-0.538134,3.325619,9.609477,14.191763,0.044688,-0.056211,0.023447,7.908000,36.005766

-0.540529,-0.008249,9.192744,14.209410,0.026036,-0.092716,0.033573,7.908000,36.005766

-0.748895,0.367769,10.723162,14.194704,-0.040846,-0.133751,0.025579,7.908000,36.005766

-1.031508,2.068233,9.274175,14.200586,0.032697,-0.108970,0.059953,7.904000,36.005766

-0.552504,0.010911,9.899275,14.194704,-0.109327,-0.061274,0.118042,7.908000,36.005766

-0.360902,1.962852,11.005774,14.203527,0.071068,-0.067402,0.106850,7.908000,36.005766

0.268988,0.456385,8.488607,14.209410,0.019907,-0.114300,0.072210,7.912000,36.005766

-0.959657,1.586834,9.494516,14.203527,0.027635,-0.127623,0.100455,7.908000,36.005766

-1.115333,1.210816,10.466894,14.203527,0.010315,-0.065271,0.058354,7.908000,36.005766

-1.148864,0.168983,10.193862,14.218235,-0.063229,-0.116698,0.041567,7.908000,36.005766

0.549205,1.045560,9.597502,14.203527,-0.005940,-0.116165,0.097790,7.908000,36.005766

-0.303422,0.351004,9.482541,14.206469,-0.022727,-0.012777,0.119640,7.904000,36.005766

-1.522487,0.750972,8.723320,14.221176,-0.066160,-0.004251,0.149218,7.908000,35.933183

-0.090265,2.214329,8.263476,14.218235,0.071335,-0.036493,0.130299,7.904000,35.933183

-0.437543,2.245465,8.591594,14.215292,0.049485,0.032255,0.132431,7.908000,35.933183

-1.057853,-0.769865,10.078901,14.200586,-0.006739,0.004010,0.115110,7.908000,35.933183

-1.237479,0.942574,10.756692,14.197645,-0.031254,0.014935,0.172933,7.908000,35.933183

-0.765660,2.731653,8.491003,14.218235,0.107040,0.077020,0.134029,7.908000,35.933183

0.283358,0.856353,8.304192,14.209410,0.012713,0.072757,0.140158,7.912000,35.933183

0.031881,2.128109,10.098062,14.215292,0.085990,0.131379,0.083668,7.912000,35.933183

1.169515,1.014425,9.731624,14.209410,0.074799,0.098071,0.069812,7.908000,35.933183

0.412689,1.814361,8.160490,14.197645,0.041224,0.142304,0.017852,7.908000,35.933183

0.451009,1.529354,8.958032,14.215292,-0.110659,0.162821,-0.023450,7.908000,35.933183

-1.450636,1.780831,10.019026,14.238823,-0.111725,0.207854,-0.087401,7.908000,35.933183

-0.178881,1.004844,9.707673,14.221176,-0.022727,0.091409,-0.152684,7.908000,35.933183

0.158817,1.131781,8.881392,14.206469,-0.031254,0.143103,-0.183328,7.912000,35.933183

-1.294960,1.883817,8.687394,14.221176,0.011114,0.087679,-0.230758,7.912000,36.336857

-0.813561,0.044442,8.124565,14.209410,0.086523,0.028258,-0.225695,7.908000,36.336857

-0.090265,-0.544733,8.079060,14.218235,-0.137572,0.000013,-0.216902,7.912000,36.336857

-1.560807,2.638248,9.971126,14.212351,0.003653,0.122319,-0.197983,7.908000,36.336857

-1.469796,1.012030,9.968730,14.203527,0.103044,0.061033,-0.134298,7.912000,36.336857

-1.213529,0.396510,9.760364,14.215292,-0.051238,0.019731,-0.144957,7.912000,36.336857

-0.483048,2.312525,9.422666,14.197645,-0.056301,-0.031696,-0.101790,7.912000,36.336857

0.565970,1.397628,7.635981,14.215292,0.007650,-0.011179,-0.103122,7.912000,36.336857

-0.945287,1.476663,8.900552,14.215292,0.009515,-0.012511,-0.058890,7.912000,36.336857

-1.316515,-0.168715,7.865902,14.200586,-0.034984,0.017866,-0.056491,7.912000,36.336857

-0.202831,1.816756,8.852651,14.230000,-0.062696,-0.084722,-0.139628,7.916000,36.336857

1.092875,1.570069,9.686118,14.238823,0.113702,-0.059941,-0.205977,7.912000,36.336857

0.173187,0.944969,9.350815,14.218235,-0.078151,-0.033561,-0.109784,7.916000,36.336857

0.233063,2.671778,10.174702,14.218235,-0.121851,0.019997,-0.122574,7.916000,36.336857

1.535953,2.123319,7.341393,14.230000,0.033230,-0.126024,-0.119643,7.912000,36.826507

1.593434,0.535421,7.631191,14.218235,-0.174877,-0.238738,-0.165208,7.912000,36.826507

0.048646,0.794083,11.489568,14.215292,-0.234298,-0.091917,-0.093263,7.912000,36.826507

0.374369,4.872801,9.985496,14.197645,0.206697,-0.088453,-0.054360,7.916000,36.826507

-3.263666,4.329132,9.954360,14.215292,0.143812,0.038117,0.039435,7.916000,36.826507

-0.552504,2.422696,11.108760,14.218235,-0.152760,-0.014643,0.086865,7.912000,36.826507

1.009049,1.560489,9.803473,14.215292,0.060410,-0.088719,0.064483,7.916000,36.826507

0.388739,-0.489648,9.829819,14.227058,-0.105330,-0.128689,0.088464,7.920000,36.826507

-0.631539,2.904095,13.601974,14.230000,-0.175943,-0.025035,0.079404,7.916000,36.826507

0.067806,6.422379,9.293335,14.206469,0.347390,-0.041022,0.027178,7.916000,36.826507

0.683326,-1.497951,7.885063,14.221176,-0.021661,-0.214756,0.009058,7.920000,36.826507

-1.122518,0.113897,9.432246,14.238823,-0.063495,-0.087653,0.006127,7.920000,36.826507

-0.559689,2.336475,10.301638,14.227058,0.071068,-0.087120,0.110048,7.920000,36.826507

-0.008834,1.598809,9.757969,14.218235,0.038826,-0.128422,0.081270,7.920000,37.731107

-0.863856,0.545001,10.098062,14.197645,0.048419,-0.031430,0.096991,7.916000,37.731107

-1.093778,0.980894,10.725556,14.224117,0.025769,-0.051148,0.076740,7.920000,37.731107

-0.236361,1.699400,9.494516,14.197645,0.002587,-0.054346,0.075408,7.920000,37.731107

-1.041088,2.214329,9.113708,14.218235,-0.018463,-0.076728,0.022382,7.924000,37.731107

-1.053063,0.676727,10.792617,14.224117,0.093984,-0.171056,0.048761,7.920000,37.731107

-0.181276,0.573741,10.407019,14.224117,0.014045,-0.102842,0.088198,7.920000,37.731107

-2.446964,1.411998,9.930409,14.191763,0.045221,0.014935,0.080470,7.920000,37.731107

0.177977,1.639525,9.034673,14.221176,0.026835,-0.143610,0.172133,7.920000,37.731107

0.580340,2.149664,8.821516,14.218235,0.161399,-0.149739,0.132431,7.924000,37.731107

0.980309,-0.266911,11.008168,14.215292,-0.106662,-0.243534,0.021582,7.920000,37.731107

-1.747618,0.978499,10.347143,14.230000,-0.020062,-0.108437,0.062351,7.920000,37.731107

-0.844696,1.778436,10.136381,14.212351,0.122495,-0.110036,0.085000,7.924000,37.731107

0.436639,1.251532,9.001143,14.212351,0.031898,-0.215555,0.038902,7.928000,38.800050

-0.947682,1.359308,10.160332,14.230000,0.045488,-0.221950,0.073009,7.924000,38.800050

-1.069828,1.093460,10.840517,14.235882,0.048419,-0.157200,0.112179,7.924000,38.800050

-0.911757,1.814361,9.774734,14.247646,0.018841,-0.130021,0.127901,7.928000,38.800050

-0.293842,1.857471,9.398716,14.232941,0.095050,-0.153470,0.179594,7.924000,38.800050

-0.463888,0.710257,9.336445,14.232941,-0.003275,-0.148940,0.227558,7.928000,38.800050

0.381554,1.706585,9.935200,14.230000,-0.058699,-0.130820,0.249408,7.924000,38.800050

0.712067,1.550909,9.425060,14.221176,0.037760,-0.134284,0.264329,7.924000,38.800050

