ax,ay,az,gx,gy,gz,temp,volt,vel

-0.892597,-0.410612,0.814965,36.527058,0.121962,0.007740,-0.000268,0.728000,2776.612565

-11.425893,44.682816,-0.430445,33.503529,-0.151961,-0.266183,-0.274191,5.036000,2777.167906

-13.437709,46.488659,62.127464,36.527058,0.121962,0.007740,-0.000268,6.868000,2777.167906

-13.571831,33.565136,62.735802,18.015293,0.053482,-0.129222,-0.137762,7.192000,2777.167906

-16.005169,39.217381,128.340164,33.491764,0.121962,0.007740,-0.000268,7.260000,2610.610930

-37.536396,-0.410612,0.814965,36.527058,0.121962,0.007740,-0.000268,7.332000,2777.167906

-0.892597,-0.410612,0.814965,36.527058,0.121962,0.007740,-0.000268,32.764000,2777.167906

-0.892597,-0.410612,0.814965,36.527058,0.121962,0.007740,-0.000268,7.372000,2777.167906

-0.892597,-0.410612,0.814965,36.527058,0.121962,0.007740,-0.000268,7.444000,2776.612565

-0.892597,-0.410612,0.814965,36.527058,0.121962,0.007740,-0.000268,7.448000,2777.167906

-0.892597,-0.410612,0.814965,36.527058,0.121962,0.007740,-0.000268,7.528000,2777.167906

-0.892597,-0.410612,0.814965,36.527058,0.121962,0.007740,-0.000268,7.524000,2776.057437

-0.892597,-0.410612,0.814965,36.527058,0.121962,0.007740,-0.000268,7.528000,2777.167906

-0.892597,-0.410612,0.814965,36.527058,0.121962,0.007740,-0.000268,7.532000,2777.167906

-0.892597,-0.410612,0.814965,36.527058,0.121962,0.007740,-0.000268,7.544000,2777.167906

-0.892597,-0.410612,0.814965,36.527058,0.121962,0.007740,-0.000268,7.548000,2651.487455

-18.199007,34.317169,-0.416075,35.771175,0.053482,-0.060741,-0.068749,7.544000,2710.489772

-9.845180,16.799997,73.206825,18.071175,-0.058699,-0.194505,0.417812,7.548000,2774.393535

2.340680,15.803670,74.701317,18.091763,-0.425884,-1.100744,-4.383043,7.548000,2776.057437

-37.876488,24.684402,81.445694,18.079998,-0.043511,0.046644,0.681876,7.544000,2777.167906

-0.892597,-0.410612,0.814965,36.527058,0.121962,0.007740,-0.000268,7.548000,2777.167906

-25.422386,-1.641652,-0.416075,35.771175,0.053482,-0.060741,-0.145223,7.552000,2728.062767

-15.574067,30.389338,-1.647115,35.015293,-0.428016,-1.092217,-4.436336,7.552000,2776.612565

-0.892597,-0.410612,0.814965,36.527058,0.121962,0.007740,-0.000268,7.568000,2777.167906

-13.897553,77.992744,0.814965,36.527058,0.121962,0.007740,-0.000268,7.568000,2777.167906

-0.892597,-0.410612,0.814965,36.527058,0.121962,0.007740,-0.000268,7.564000,2777.167906

-0.892597,-0.410612,0.814965,36.527058,0.121962,0.007740,-0.000268,7.572000,2777.167906

-6.386771,21.661888,0.814965,36.527058,0.121962,0.007740,-0.000268,7.588000,2776.057437

10.387945,16.435955,67.013306,12.432940,0.121962,0.007740,-0.000268,7.592000,2776.057437

-21.245472,13.394280,0.814965,36.527058,0.121962,0.007740,-0.000268,7.592000,2771.071451

-1.031508,17.968767,77.944176,36.527058,0.121962,0.007740,-0.000268,7.596000,2777.167906

-0.897387,-1.641652,-0.416075,35.771175,0.053482,-0.060741,-0.069015,7.588000,2776.057437

-17.470921,15.171385,72.670341,18.127058,-0.119719,-0.076195,0.428737,7.596000,2776.612565

-0.892597,-0.410612,0.814965,36.527058,0.121962,0.007740,-0.000268,7.596000,2694.187005

-14.050835,10.697489,69.058655,18.127058,-0.014733,-0.542238,-2.200182,7.604000,2290.636574

-7.699242,16.934118,63.320187,0.385880,0.121962,0.007740,-0.000268,7.604000,2755.126975

7.169039,16.857477,67.851562,18.132940,0.226949,0.096206,0.650167,7.608000,2669.326996

-11.425893,39.753864,63.463886,18.141764,0.187512,0.116457,0.191852,7.604000,2776.612565

24.758062,30.288748,65.657722,18.138823,-0.151162,-0.060741,-0.068749,7.604000,2757.862783

11.144772,25.019705,75.458145,18.106470,-0.052837,0.160956,-0.706660,7.608000,2776.612565

3.816012,27.304554,0.814965,36.527058,0.121962,0.007740,-0.000268,7.608000,2777.167906

14.909742,47.111366,42.540997,18.124117,0.104909,-0.266183,-0.274191,7.608000,2776.612565

-0.892597,-0.410612,0.814965,36.527058,0.121962,0.007740,-0.000268,7.608000,2760.604313

5.444625,30.010925,59.411514,18.124117,0.113169,-0.271246,-1.121542,7.612000,2775.502520

14.603179,24.914324,70.648949,18.141764,0.228014,-0.178784,-0.611266,7.612000,2777.167906

-3.723510,3.991434,75.247383,18.144705,0.100112,-0.301090,-0.009594,7.612000,2776.057437

-3.685189,14.893563,63.023201,18.156469,0.037760,-0.353583,0.351196,7.608000,2776.057437

-20.488646,24.042536,74.576775,18.144705,0.062808,-0.281638,0.603803,7.604000,2772.177894

-14.903461,27.807507,52.197716,18.162352,0.141414,-0.240070,0.837224,7.612000,2777.167906

-0.044760,13.887654,83.055145,18.162352,0.018042,-0.220085,1.063184,7.616000,2167.291901

-18.610950,9.940662,64.364410,18.177057,-0.069891,-0.070600,1.324584,7.608000,2775.502520

7.341481,30.346228,72.612862,18.453527,0.053482,-0.060741,-0.068749,7.604000,2777.167906

-2.027836,44.323563,47.412464,36.527058,0.121962,0.007740,-0.000268,7.612000,2775.502520

-8.676410,21.618776,88.812775,18.159410,-0.056834,0.164953,1.169503,7.616000,2777.167906

0.185162,29.905544,52.264774,18.159410,0.112103,0.248889,0.912100,7.620000,2386.703251

2.283200,22.021141,82.499504,18.159410,-0.169281,0.144702,0.403423,7.616000,2776.612565

-36.861000,21.590036,58.463085,18.171175,0.026835,0.354941,0.343469,7.620000,2428.018794

18.971697,22.538464,53.970028,18.165293,-0.038448,-0.007448,0.185190,7.616000,2776.612565

28.657154,5.485926,110.367950,18.150587,-0.079217,0.233700,0.557438,7.624000,2765.001905

0.453404,20.325466,80.075745,18.153528,-0.187667,0.015734,-0.148954,7.624000,2771.071451

6.785836,52.859413,39.264610,18.159410,-0.200724,0.383452,-0.738635,7.632000,2776.057437

3.777692,20.957752,54.573574,18.144705,-0.153826,0.302981,-1.024549,7.628000,2513.274026

13.137427,29.119978,82.921028,18.138823,-0.123716,0.139639,-0.949141,7.628000,2756.767782

8.146207,20.335047,69.580765,36.527058,0.121962,0.007740,-0.000268,7.628000,2774.393535

7.925866,30.892292,47.690289,35.771175,0.053482,-0.060741,-0.068749,7.632000,2771.624673

0.874928,24.717932,-0.420865,35.015293,-0.014999,-0.129754,-0.275257,7.636000,2619.969718

-0.892597,-0.410612,0.814965,36.527058,0.121962,0.007740,-0.000268,7.632000,2752.396251

-0.892597,-0.410612,0.814965,36.527058,0.121962,0.007740,-0.000268,7.640000,2774.393535

-0.892597,-0.410612,0.814965,36.527058,0.121962,0.007740,-0.000268,7.632000,2777.167906

-0.892597,-0.410612,0.814965,36.527058,0.121962,0.007740,-0.000268,7.640000,2776.612565

-13.164677,-5.334772,-4.166676,12.241764,0.121962,0.007740,-0.000268,7.640000,2777.167906

-0.892597,-0.410612,0.814965,36.527058,0.121962,0.007740,-0.000268,7.644000,2776.057437

21.357136,52.399567,58.673847,18.197645,0.148609,0.007474,-0.068749,7.648000,2776.612565

-0.892597,-0.410612,0.814965,36.527058,0.121962,0.007740,-0.000268,7.644000,2777.167906

-0.892597,-0.410612,0.814965,36.527058,0.121962,0.007740,-0.000268,7.648000,2776.057437

-0.892597,-0.410612,0.814965,36.527058,0.121962,0.007740,-0.000268,7.656000,2776.057437

3.375329,37.114552,0.814965,36.527058,0.121962,0.007740,-0.000268,7.648000,2775.502520

28.388912,21.264315,70.423813,30.480000,-0.986521,-4.375035,-4.383043,7.652000,2775.502520

-18.697170,35.835613,98.249153,17.950586,0.121962,0.007740,-0.000268,7.660000,2776.057437

-19.109114,15.257606,87.318283,18.194704,-0.287590,-0.061007,-0.000268,7.648000,2776.057437

3.528610,-1.833254,79.788338,18.200586,-0.145566,0.007740,-0.000268,7.652000,2776.057437

-18.419350,12.910487,77.948967,18.206469,-0.284659,0.007474,-0.275257,7.648000,2776.612565

-1.060248,4.106395,74.389969,36.527058,0.121962,0.007740,-0.000268,7.652000,2776.057437

-0.892597,-0.410612,0.814965,36.527058,0.121962,0.007740,-0.000268,7.648000,2774.393535

-45.047176,-78.890610,0.814965,36.527058,0.121962,0.007740,-0.000268,7.652000,2776.612565

-23.065687,20.996071,-136.525040,36.527058,0.121962,0.007740,-0.000268,7.656000,2776.612565

-0.892597,-0.410612,0.814965,36.527058,0.121962,0.007740,-0.000268,7.660000,2776.057437

-0.892597,-0.410612,0.814965,36.527058,0.121962,0.007740,-0.000268,7.664000,2776.612565

-0.892597,-0.410612,0.814965,36.527058,0.121962,0.007740,-0.000268,7.664000,2776.057437

-0.178881,33.220253,61.562241,36.527058,0.121962,0.007740,-0.000268,7.660000,2776.612565

17.553844,46.287479,75.333603,18.238823,0.063341,0.059967,-0.227827,7.660000,2776.612565

-0.892597,-0.410612,0.814965,36.527058,0.121962,0.007740,-0.000268,7.660000,2773.839254

-15.387255,-0.410612,0.814965,36.527058,0.121962,0.007740,-0.000268,7.664000,2736.665351

-0.892597,-0.410612,0.814965,36.527058,0.121962,0.007740,-0.000268,7.668000,2774.393535

-14.247226,-0.410612,0.814965,36.527058,0.121962,0.007740,-0.000268,7.664000,2776.057437

-0.892597,-0.410612,0.814965,36.527058,0.121962,0.007740,-0.000268,7.672000,2774.948028

-0.892597,-0.410612,0.814965,36.527058,0.121962,0.007740,-0.000268,7.672000,2777.167906

-18.539101,-39.650612,0.814965,36.527058,0.121962,0.007740,-0.000268,7.664000,2776.612565

-47.490097,-0.410612,0.814965,36.527058,0.121962,0.007740,-0.000268,7.668000,2777.167906

-15.645917,-20.643738,0.814965,36.527058,0.121962,0.007740,-0.000268,7.664000,2776.612565

-35.227596,-0.410612,0.814965,36.527058,0.121962,0.007740,-0.000268,7.668000,2777.167906

-37.680096,-0.410612,0.814965,36.527058,0.121962,0.007740,-0.000268,7.672000,2776.612565

-0.892597,-0.410612,0.814965,36.527058,0.121962,0.007740,-0.000268,7.664000,2765.552584

-5.620365,19.980583,49.864967,36.527058,0.121962,0.007740,-0.000268,7.672000,2628.400467

-9.960141,25.642410,57.485916,18.247646,-0.242558,-0.060741,-0.068749,7.672000,2773.839254

-35.127007,24.329939,54.995098,18.244705,-0.052038,-0.128422,-0.408755,7.672000,2777.167906

3.911813,-2.446379,72.675133,35.015293,-0.014999,-0.129222,-0.137230,7.672000,2773.839254

5.454206,8.206669,71.961418,18.265293,-0.083480,-0.340526,-0.038372,7.672000,2768.861319

-20.297045,25.987293,51.028946,18.250587,-0.178074,-0.273644,0.203842,7.676000,2766.654578

-69.562599,-0.410612,0.814965,36.527058,0.121962,0.007740,-0.000268,7.676000,2777.167906

24.643103,43.499676,70.716003,18.259411,-0.044310,-0.219819,0.557971,7.680000,2774.948028

18.483112,32.587967,75.017464,18.268234,0.053482,-0.060741,-0.068749,7.680000,2776.612565

-0.892597,-0.410612,0.814965,36.527058,0.121962,0.007740,-0.000268,7.684000,2774.393535

4.400397,11.866259,65.523605,18.274117,-0.049639,0.083948,0.058354,7.688000,2776.612565

28.312273,16.579657,40.969864,18.282940,0.052682,0.058102,0.025579,7.692000,2134.969228

4.400397,20.814051,59.239071,18.294704,0.001521,0.217713,0.036238,7.684000,2777.167906

-11.435472,12.306942,79.290176,0.382938,0.053482,-0.060741,-0.137230,7.692000,2315.850424

9.401197,5.802069,59.152851,18.265293,-0.014733,-0.129222,-0.137230,7.688000,2777.167906

-13.552670,21.063133,64.124908,18.268234,0.056146,-0.101243,0.214501,7.688000,2776.612565

-14.927411,-0.410612,0.814965,36.527058,0.121962,0.007740,-0.000268,7.684000,2776.612565

-20.785627,22.624685,98.019226,18.282940,-0.270004,-0.009313,0.346933,7.692000,2777.167906

-0.562084,35.711071,47.493896,18.262352,0.032964,0.291523,0.360522,7.688000,2771.071451

-16.024330,17.585564,67.420456,18.279999,-0.145033,-0.009047,0.410617,7.696000,2777.167906

-27.874886,-1.641652,-0.416075,35.771175,-0.150895,0.007740,-0.000268,7.696000,2776.612565

-4.825219,11.444735,70.658524,18.274117,-0.047508,-0.025568,0.250740,7.696000,2717.917264

12.696744,32.128124,104.112160,18.274117,-0.006739,0.013069,0.250740,7.696000,2776.612565

4.012403,-0.410612,0.814965,36.527058,0.121962,0.007740,-0.000268,7.696000,2683.772625

11.096870,45.818054,140.597885,35.015293,-0.014999,-0.129222,-0.137230,7.696000,2777.167906

-3.675609,40.137070,77.671143,18.256470,0.085191,0.079419,-0.324553,7.696000,2302.410806

-6.310131,46.316219,63.799191,0.362350,0.121962,0.007740,-0.000268,7.704000,2775.502520

5.875729,39.102421,60.216240,18.262352,0.019108,-0.060741,-0.068749,7.704000,2651.487455

-4.873119,5.342225,74.859390,36.527058,0.121962,0.007740,-0.000268,7.704000,2775.502520

3.423229,9.701160,81.656456,18.274117,-0.130111,-0.105240,-0.015989,7.704000,2777.167906

-0.418383,24.272459,83.390450,18.268234,-0.326227,0.018932,0.120706,7.708000,2642.908178

-4.413275,23.841354,67.018097,18.256470,-0.190865,-0.267249,-2.183129,7.708000,2761.153297

-3.924691,20.200926,79.644638,18.265293,0.237341,0.021330,0.158277,7.708000,2545.525083

6.757096,33.632195,72.526642,18.259411,0.037494,0.159091,0.122838,7.708000,2776.057437

-18.534309,41.574081,56.997334,18.288822,-0.141569,0.261679,0.180660,7.700000,2777.167906

5.904469,30.614470,79.568001,18.282940,0.257858,-0.267249,-0.548115,7.704000,2774.948028

2.034117,85.422096,-0.416075,35.771175,0.053482,-0.061007,-0.137762,7.708000,2237.125791

13.961314,28.842155,64.201553,18.282940,0.174455,0.293122,0.225426,7.708000,2283.479654

-10.908568,46.450340,67.544998,18.274117,0.011114,0.146567,0.030109,7.700000,2311.225060

-12.297680,10.994472,72.124275,18.277058,0.044688,0.080218,-0.068749,7.712000,2592.092523

-0.892597,-0.410612,0.814965,36.527058,0.121962,0.007740,-0.000268,7.708000,2758.958844

-0.207621,40.165810,77.968124,18.265293,0.103576,0.079952,-0.106853,7.716000,2619.475400

-11.013949,12.201561,81.416954,18.277058,0.052949,0.090344,-0.165475,7.708000,2633.385182

-0.902177,-2.882272,-18.881676,12.338821,-2.069425,-2.183647,-2.191655,7.708000,2645.425749

-0.447123,11.684237,64.326088,18.268234,-0.086145,-0.000520,-0.273658,7.704000,2776.612565

-0.696205,6.348133,62.419659,18.271175,0.051616,-0.235007,-0.279787,7.708000,2554.422182

4.012403,-0.410612,0.814965,36.527058,0.121962,0.007740,-0.000268,7.712000,2777.167906

-5.764066,22.682165,70.610626,18.279999,-0.041646,-0.025035,-0.046099,7.712000,2687.408505

6.776256,20.756569,69.010750,18.288822,-0.097869,-0.092450,0.056755,7.716000,2248.354854

5.358405,18.668114,67.717438,18.285881,-0.093606,-0.072731,0.117509,7.712000,2077.163827

10.608287,28.937956,64.163231,18.285881,-0.084280,0.014135,0.181460,7.716000,2084.960839

-3.100805,20.373367,67.219276,18.291763,-0.125848,0.080484,0.167337,7.712000,2774.393535

-4.911439,18.792654,71.329132,18.282940,-0.094405,0.006941,0.086333,7.716000,2777.167906

8.912613,29.019386,0.814965,36.527058,0.121962,0.007740,-0.000268,7.716000,2777.167906

-14.012514,37.464226,71.741074,18.294704,0.009515,0.101801,-0.041836,7.716000,2750.760529

1.559904,-0.410612,0.814965,36.527058,0.121962,0.007740,-0.000268,7.716000,2774.948028

-0.892597,-0.410612,0.814965,36.527058,0.121962,0.007740,-0.000268,7.716000,2491.627406

-5.629945,13.049397,-0.416075,35.771175,0.053482,-0.060741,-0.070614,7.716000,2776.057437

-3.637289,27.376404,60.388680,18.285881,0.091319,0.036252,-0.179331,7.712000,2184.338371

-40.132595,-0.410612,0.814965,36.527058,0.121962,0.007740,-0.000268,7.712000,2775.502520

-4.624037,29.196619,82.796486,18.294704,0.037227,-0.066336,-0.307499,7.716000,2673.953208

-7.718402,16.627556,73.695412,18.300587,-0.099468,-0.031696,-0.237686,7.716000,2695.755985

-0.892597,-0.410612,0.814965,36.527058,0.121962,0.007740,-0.000268,7.720000,2774.393535

-13.294008,9.768221,64.527275,18.303528,-0.015532,-2.175121,-0.000268,7.716000,2770.518653

-6.463412,21.264315,61.413750,18.297646,-0.015532,-0.060741,-0.068749,7.720000,2770.518653

-4.614457,33.306473,73.139763,18.315292,0.134753,0.001878,-0.451389,7.716000,2774.948028

-8.695570,11.521376,80.161964,18.321175,-0.083480,-0.216088,-0.413818,7.720000,2776.057437

8.711432,14.270858,66.979774,18.315292,-0.018197,-0.538241,-0.068749,7.716000,2549.731771

-2.037416,27.864988,73.254723,18.309410,0.090253,-0.177984,-0.047698,7.724000,2681.699369

-7.632182,30.173786,75.841347,18.453527,0.053482,-0.060741,-0.068749,7.720000,2194.002055

-8.350688,26.466297,77.680725,18.318233,-0.135973,-0.124425,0.028244,7.720000,2170.001436

-2.966683,8.427011,72.114700,18.329998,-0.185269,-0.108970,0.003729,7.720000,2777.167906

5.042262,13.815804,0.814965,36.527058,0.121962,0.007740,-0.000268,7.716000,2738.824419

5.435045,26.389656,62.007713,18.327057,-0.141036,-0.024768,-0.000801,7.724000,2777.167906

-21.561615,5.591307,53.802376,36.527058,0.121962,0.007740,-0.000268,7.720000,2735.048063

2.388580,16.177292,67.717438,18.329998,0.115567,-0.060741,-0.068749,7.720000,2772.177894

7.284000,24.492800,51.651649,18.215292,0.053482,-0.060741,-0.068749,7.724000,2776.612565

-1.663793,17.997507,89.071434,18.327057,0.062008,0.033854,0.136161,7.716000,2776.057437

-13.514350,26.054354,64.670975,18.353529,0.093984,0.120987,0.248075,7.724000,2771.624673

-0.892597,-0.410612,0.814965,36.527058,0.121962,0.007740,-0.000268,7.724000,2696.279543

-15.066322,29.086449,-0.416075,35.771175,0.053482,-0.060741,-0.068749,7.724000,2776.057437

-12.556342,18.610632,70.284904,18.335880,-0.135174,-0.005050,-0.043168,7.724000,2713.667989

-8.705151,11.368094,71.741074,18.344706,0.086523,-0.132952,-0.247012,7.724000,2761.153297

-14.050835,21.187674,77.163399,18.335880,0.018575,0.014935,-0.235288,7.720000,2640.897638

5.406305,39.571842,61.777794,18.329998,0.028434,0.090077,-0.204645,7.728000,2647.947982

-2.822982,46.019238,80.794250,18.350588,0.024970,-0.008248,-0.387971,7.728000,2748.038705

-16.876957,35.356609,55.263340,18.324116,0.117166,-0.048750,-0.955269,7.732000,2754.034092

2.896324,15.391727,67.655174,36.527058,0.121962,0.007740,-0.000268,7.736000,2766.654578

8.299488,19.156696,70.850128,18.359411,0.085457,-0.181448,-0.100724,7.732000,2262.642844

-5.993988,8.379109,70.026237,18.232941,-0.151961,-0.266183,-0.274191,7.732000,2754.580321

-0.322582,16.799997,52.255196,18.353529,0.040691,-0.227280,0.137760,7.732000,2132.673920

1.104850,38.824596,-0.416075,35.771175,0.053482,-0.060741,-0.068749,7.732000,2348.357858

-2.583480,26.648317,51.124744,18.359411,-0.122917,-0.100177,0.229423,7.732000,2776.612565

-2.660121,29.464861,63.071102,18.341763,-0.350742,-0.017840,0.324017,7.728000,2774.948028

-9.749379,43.844559,-9.545889,18.341763,-0.293986,-0.002652,0.245944,7.728000,2774.393535

9.592798,-16.624895,146.274078,18.341763,0.334333,0.182273,0.363453,7.732000,2089.981786

-5.658685,9.557460,64.939217,18.347647,0.186180,-0.034627,0.034639,7.728000,2163.914516

-2.094896,21.590036,42.617638,18.338821,-0.143967,0.095939,0.125502,7.740000,2113.521987

8.069566,24.272459,78.313011,18.350588,0.121696,-0.060741,-0.068749,7.736000,2106.787982

10.656187,15.209705,62.544197,18.338821,0.007650,0.352276,0.003463,7.728000,2105.510127

2.953805,4.269256,60.484482,18.338821,-0.030721,0.215847,-0.172935,7.736000,2120.622970

-13.207788,2.832244,75.630585,18.362352,-0.051771,0.266742,-0.512409,7.740000,2160.547514

-29.446018,111.364952,47.790878,18.368235,0.230146,0.531339,-0.712256,7.744000,2263.380614

7.839645,-8.807550,52.944962,18.332939,-0.044577,0.094341,-0.583288,7.744000,2221.023675

-17.921185,16.158133,94.551239,18.344706,-0.003009,-0.086588,-0.674951,7.744000,2373.242021

-2.803822,13.446971,74.155251,18.344706,-0.025391,-0.154802,-0.641376,7.744000,2777.167906

-9.711059,24.943064,82.355797,18.362352,0.054281,-0.071932,-0.543585,7.740000,2777.167906

1.009049,4.786581,71.472832,18.356470,-0.053103,-0.140946,-0.397297,7.736000,2357.127828

-9.021294,18.131628,67.027672,35.771175,0.053482,-0.060741,-0.068749,7.732000,2222.801358

-17.490082,1.979617,76.780197,18.359411,0.155537,-0.329068,-0.257937,7.736000,2777.167906

-0.121400,32.492165,34.915253,18.359411,0.258391,0.007740,-0.000268,7.740000,2653.514098

5.846989,26.648317,71.175850,18.365294,0.201635,-0.060741,0.004529,7.744000,2172.038037

1.535953,25.623249,74.107353,18.374117,0.194707,-0.422330,-0.084470,7.744000,2156.856121

1.775455,24.205399,62.831600,18.374117,0.121962,-0.062606,0.082336,7.744000,2308.151513

-9.854760,20.536228,67.133057,18.362352,-0.069891,-0.129222,-0.137230,7.744000,2693.141796

1.152750,43.231434,61.011387,18.347647,0.037494,-0.265384,-0.137230,7.744000,2688.969645

-12.987446,18.783073,68.292244,18.368235,-0.046442,-0.052214,0.172133,7.744000,2398.245262

-16.848217,18.457352,72.766144,18.356470,-0.068292,-0.193705,0.268326,7.736000,2693.141796

-0.571664,33.057388,84.913681,18.359411,-0.094405,-0.087653,0.370115,7.740000,2274.130189

-11.694135,22.663006,69.815475,18.359411,-0.186068,0.007740,-0.000268,7.744000,2111.593657

-10.707387,-1.641652,-1.675855,24.432940,-0.973731,-1.087953,-1.095961,7.740000,2715.791037

-12.307260,25.201727,61.155087,18.379999,0.043889,0.173213,0.318155,7.744000,2277.860780

-6.846615,17.575983,80.324821,18.368235,-0.424019,-0.129222,-0.137230,7.736000,2674.468291

-7.574701,37.761208,61.538292,18.371176,0.060143,0.280598,-0.097527,7.736000,2486.719180

-18.486410,27.568005,65.236198,18.377058,0.059877,0.172947,-0.190256,7.740000,2774.948028

2.838844,17.796326,68.052742,18.377058,0.100645,0.157759,-0.318957,7.740000,2124.191472

-12.700044,1.318592,54.563995,18.377058,0.064140,0.018665,-0.321355,7.740000,2129.076814

21.270914,25.115505,60.398262,18.388823,0.051083,-0.049549,-0.402626,7.740000,2607.179728

2.618502,26.341755,78.207626,18.394705,0.058544,0.027458,-0.381576,7.732000,2772.177894

-14.395717,21.499025,-0.416075,35.771175,0.053482,-0.060741,-0.068749,7.736000,2776.057437

-16.110550,18.601051,60.034218,18.400587,0.053215,-0.099644,-0.403426,7.744000,2761.153297

-9.318275,16.330574,65.399063,18.453527,0.053482,-0.060741,-0.068749,7.752000,2746.408068

0.894088,0.379744,75.103683,18.385881,-0.074687,-0.202765,-0.130035,7.752000,2309.303087

-0.892597,-0.410612,0.814965,36.527058,0.121962,0.007740,-0.000268,7.744000,2120.299216

2.570602,27.702126,64.761986,36.527058,0.121962,0.007740,-0.000268,7.744000,2125.166761

1.200651,13.514031,75.027039,18.391764,0.029766,-0.137482,0.088198,7.748000,2134.312820

-0.801586,12.728465,57.284737,18.400587,-0.123450,0.013336,0.091662,7.752000,2126.794219

-15.066322,15.640809,62.084354,18.297646,0.121962,0.007740,-0.000268,7.752000,2144.200039

7.379801,6.827137,64.402733,18.397646,-0.029921,0.013336,-0.003998,7.748000,2143.538123

-8.130345,15.353407,68.378464,18.403528,0.029766,-0.010379,-0.059955,7.752000,2172.038037

1.612594,27.654226,63.789608,18.382940,0.040425,0.039716,-0.011459,7.748000,2303.938893

1.315612,19.808142,61.538292,18.409410,-0.042978,0.033587,-0.006929,7.752000,2149.843492

-3.177445,14.778602,58.769650,18.397646,-0.072822,0.043446,-0.006929,7.748000,2118.681716

-5.035980,19.108797,90.815010,18.400587,-0.045376,0.021063,-0.097793,7.744000,2127.120092

0.108522,32.511326,73.369690,18.406469,0.021772,0.091676,-0.146556,7.752000,2138.915513

-19.664759,31.246756,70.984245,18.412352,0.034829,0.181207,-0.167873,7.752000,2153.511154

-14.175375,21.561296,74.183990,18.397646,-0.134375,-0.004517,-0.207842,7.752000,2139.904362

-10.870248,22.528885,68.685028,18.400587,-0.076552,-0.091117,-0.241949,7.748000,2133.329268

-12.144399,19.195017,77.441223,18.412352,-0.038981,-0.151338,-0.197450,7.752000,2147.184173

-13.840073,11.358514,70.543564,18.403528,-0.129845,-0.197436,-0.085802,7.752000,2138.586038

1.488053,22.270222,62.898663,18.400587,0.006584,-0.154269,-0.041037,7.752000,2164.589145

-6.300550,24.521540,67.343819,18.406469,-0.140237,-0.151604,-0.030112,7.748000,2147.848420

-19.549799,16.704197,76.799355,18.415293,-0.029122,-0.071666,-0.143625,7.752000,2147.848420

4.342916,24.205399,51.517529,18.400587,0.159800,-0.223283,-0.142026,7.752000,2132.346351

-10.889408,13.111669,69.949600,18.397646,0.039093,-0.149206,-0.229692,7.756000,2142.215349

8.194107,39.878407,65.274521,18.391764,0.058278,-0.171856,-0.068749,7.756000,2134.969228

-5.055140,9.614940,80.564323,18.391764,-0.009937,-0.079127,-0.067416,7.748000,2116.421156

-6.837035,14.941463,69.528076,18.397646,0.055613,-0.144676,-0.109517,7.752000,2111.593657

-1.184789,24.195818,53.577248,18.379999,0.046021,-0.093782,-0.024782,7.752000,2131.037350

-0.906967,14.021776,79.184792,18.382940,-0.000610,-0.230477,-0.011459,7.760000,2136.283102

8.098307,24.464060,87.644005,18.394705,-0.065094,-0.060741,-0.068749,7.752000,2146.852155

-17.288900,14.002616,68.330566,18.382940,-0.132509,-0.005849,0.275787,7.756000,2133.657048

4.045934,20.603289,70.993828,18.397646,0.084125,-0.199568,0.273922,7.764000,2153.177230

-0.370482,17.834646,50.569099,18.377058,-0.041646,-0.053013,0.376510,7.756000,2154.513564

1.765875,12.316522,71.444092,18.374117,-0.123716,-0.172122,0.450054,7.760000,2109.668718

11.872857,43.882877,72.785301,18.397646,0.029233,0.087679,0.384770,7.756000,2132.673920

-0.408803,23.266550,73.580452,18.374117,-0.117321,0.078353,0.264862,7.756000,2131.691639

-12.747944,20.564968,82.240837,18.359411,-0.047508,0.027725,0.091662,7.760000,2102.640834

4.534518,18.926775,62.544197,18.377058,0.004719,-0.060741,-0.068749,7.756000,2157.191105

-8.542289,27.136902,65.561920,18.385881,-0.142102,0.050374,-0.099125,7.760000,2166.277626

-4.624037,23.803034,74.193573,18.385881,-0.117054,-0.026367,-0.111649,7.756000,2174.759438

-13.897553,26.523777,71.693176,18.385881,-0.065627,0.055171,-0.102856,7.764000,2215.354161

7.082819,17.556824,61.758633,18.382940,-0.036050,-0.041555,-0.128436,7.756000,2187.435437

17.141901,37.138504,69.681358,18.379999,0.102511,-0.023702,-0.116445,7.760000,2134.969228

3.921393,31.275496,65.609825,18.391764,-0.008604,0.153495,-0.096727,7.764000,2159.203764

-9.720639,26.887819,57.476337,18.382940,-0.114923,0.031722,-0.144424,7.752000,2135.954475

-14.213696,25.096346,71.491989,18.391764,-0.025125,-0.066070,-0.223030,7.752000,2052.600028

-12.010278,9.729901,52.274357,18.391764,0.008716,-0.051148,-0.116445,7.760000,2114.165682

9.085054,31.811981,69.183189,18.397646,0.046554,-0.043421,0.058087,7.756000,2127.120092

-3.072064,21.101452,57.830799,18.382940,-0.144500,0.014135,0.118574,7.764000,2123.217031

-25.925341,-0.410612,0.814965,36.527058,0.121962,0.007740,-0.000268,7.756000,2115.453919

-4.125873,41.689041,67.976105,18.382940,0.046554,-0.057543,0.115643,7.764000,2155.516821

18.559753,32.032322,67.065994,18.371176,-0.006206,0.002677,0.049028,7.764000,2148.513091

-11.224711,24.636501,61.030548,18.391764,-0.016332,0.172947,0.091928,7.764000,2167.630275

-2.506840,12.670985,74.375595,18.377058,0.030033,0.039982,0.019450,7.764000,2187.779955

1.334772,8.522811,73.992393,18.377058,-0.100001,0.110062,0.068480,7.764000,2196.778969

-14.568158,8.398270,70.112457,18.371176,-0.349676,0.058102,-0.005331,7.764000,2196.431484

-9.260796,16.349733,70.792648,18.379999,-0.265741,-0.032229,0.044231,7.764000,2213.941338

-5.562884,17.662205,52.983280,18.368235,-0.122117,0.164687,0.090063,7.764000,2205.501902

-11.416313,28.890057,61.068867,18.391764,0.056413,0.143103,-0.055426,7.772000,2242.907391

0.702486,26.792019,75.458145,18.388823,0.062541,0.109795,-0.115380,7.764000,2218.894059

2.034117,39.456882,62.046036,18.382940,0.177387,0.249955,-0.259269,7.768000,2230.656849

-16.244671,25.010124,72.655968,36.527058,0.121962,0.007740,-0.000268,7.768000,2243.632236

-10.305024,31.888622,76.186234,18.385881,-0.036849,0.013602,-0.280853,7.780000,2314.306659

-21.389174,26.811180,75.985046,18.388823,0.030566,0.048509,-0.136430,7.772000,2253.097388

-17.940346,14.673222,79.548836,18.388823,0.089720,-0.160931,-0.160945,7.772000,2262.274382

15.666568,18.811813,60.714405,18.394705,0.037760,-0.245133,-0.116445,7.772000,2251.636044

-0.274681,20.488327,75.410240,18.400587,-0.110393,-0.099378,-0.015456,7.768000,2233.527415

-10.372085,7.037899,71.300392,18.394705,-0.054969,-0.217954,0.031708,7.776000,2283.479654

-3.522328,18.945934,45.338379,18.377058,-0.057100,-0.183846,0.141490,7.780000,2266.335719

2.446061,15.707870,68.234764,18.391764,0.186446,-0.238471,0.158011,7.780000,2297.838836

9.832300,18.744753,61.643673,18.385881,0.086256,-0.108704,0.289110,7.780000,2202.004381

5.205123,29.570242,60.541962,18.371176,0.018575,-0.006116,0.330412,7.780000,1130.952855

0.558785,25.479548,60.350361,18.382940,-0.033119,0.071691,0.331744,7.776000,1732.697711

-4.269574,14.663641,71.070465,18.379999,-0.069091,0.200393,0.253671,7.780000,1162.286679

-5.103041,15.592909,63.665070,18.379999,-0.187667,-0.036226,0.096991,7.780000,2283.104201

-3.771410,17.662205,77.153816,18.382940,-0.072822,0.063964,-0.118577,7.784000,2338.864737

-1.644633,22.854607,63.502205,18.385881,-0.021128,0.144169,-0.202513,7.784000,2345.580944

3.796852,12.220721,82.547401,18.397646,-0.058699,0.043446,-0.264066,7.780000,1161.023338

3.356168,15.161805,54.908878,18.385881,0.098780,0.051440,-0.217168,7.784000,2433.124069

10.090962,24.971804,67.334236,18.377058,-0.024858,0.104200,-0.154283,7.784000,1765.972260

14.411578,18.945934,60.034218,18.385881,0.014844,0.160423,-0.103122,7.784000,2291.392566

-2.679281,24.914324,72.967323,18.382940,0.055613,0.273670,-0.099925,7.784000,1725.592066

-16.474594,24.320358,70.371124,18.397646,0.007117,0.195063,-0.160145,7.784000,2291.770773

-24.636820,25.307106,72.105118,18.374117,0.047619,0.062898,-0.226494,7.784000,2328.276191

-16.378792,33.325634,61.710732,18.385881,0.063341,0.025860,-0.158014,7.788000,2336.896574

-20.498226,12.603925,65.561920,18.391764,-0.014733,-0.136150,-0.107386,7.792000,2363.547190

1.746715,7.488163,59.593536,18.382940,0.009782,-0.062073,0.014654,7.784000,2355.927946

7.935445,25.843592,61.864014,18.388823,0.023371,-0.079659,0.021849,7.792000,2296.698492

-11.119330,13.341590,78.380066,18.374117,-0.001410,0.029057,-0.101257,7.784000,2308.151513

-2.640961,20.315886,76.100006,18.388823,-0.029388,-0.105506,-0.137496,7.784000,2323.601035

3.164567,26.686638,56.700352,18.391764,0.209629,-0.119362,-0.169471,7.792000,2342.415653

-1.203949,22.126520,66.366653,18.388823,0.182183,0.052239,-0.114047,7.788000,2304.703572

3.739371,25.374168,58.903770,18.371176,0.033497,0.011204,-0.107386,7.788000,2302.792616

-22.308861,7.037899,72.881104,18.362352,-0.105064,0.055703,-0.088200,7.788000,2303.174638

14.325357,23.908415,59.306133,18.382940,0.080394,-0.091117,-0.045833,7.788000,2325.936177

2.292779,26.935720,64.862579,18.374117,0.002054,-0.017307,0.035438,7.784000,2330.229735

8.558150,25.939392,72.306297,18.374117,0.060410,0.042114,-0.049563,7.796000,2343.206181

-8.245307,16.522175,58.530148,18.377058,-0.029122,0.026126,-0.025848,7.792000,2340.836079

-16.033911,5.179364,63.741707,18.377058,-0.061364,-0.033828,-0.075410,7.784000,2323.989837

13.673912,24.990965,68.982010,18.365294,0.273047,-0.078327,-0.035174,7.796000,2343.997133

17.467625,33.689674,42.991261,18.365294,0.140881,-0.055145,0.009858,7.784000,2326.715687

0.501305,8.915594,70.189102,18.353529,0.031898,0.071425,-0.021585,7.792000,2336.896574

7.657623,9.806541,74.222313,18.359411,-0.033385,0.023728,-0.104721,7.788000,2334.146781

-1.357230,18.112469,71.271652,18.341763,-0.020062,0.045311,-0.254473,7.792000,2332.970417

-17.365540,31.323397,70.054977,18.347647,-0.041379,0.112460,-0.403159,7.796000,2532.525966

-10.017621,34.321960,76.856834,18.359411,0.023105,-0.014376,-0.471373,7.796000,2353.133234

-2.573900,30.863552,82.988083,18.353529,0.115034,-0.014643,-0.437533,7.796000,2353.931178

-1.031508,19.012995,63.760868,18.359411,0.006851,-0.076195,-0.395965,7.796000,2330.620868

-7.258558,13.255369,81.119972,18.335880,0.078529,-0.218753,-0.317625,7.788000,2334.146781

-7.708822,23.055788,67.171379,18.371176,0.059344,-0.116964,-0.204378,7.792000,2323.989837

-11.387572,21.273893,72.756561,18.350588,0.075598,-0.252594,-0.144158,7.792000,2310.455932

4.534518,18.725594,87.806862,18.362352,0.201102,-0.196104,-0.033309,7.792000,2287.240968

-6.884935,22.490564,75.659325,18.362352,0.162998,-0.239803,0.019450,7.796000,2292.527613

-0.892597,-0.410612,0.814965,36.527058,0.121962,0.007740,-0.000268,7.792000,2280.105024

-11.885736,11.851888,0.814965,36.527058,0.121962,0.007740,-0.000268,7.788000,2264.857213

-9.088354,25.422068,65.169144,18.374117,0.144612,-0.335197,0.292841,7.792000,2274.502888

9.343717,22.873768,54.410713,18.377058,0.075331,-0.180382,0.375977,7.788000,2259.697273

9.966422,33.593876,79.232697,18.374117,-0.005940,-0.169191,0.431135,7.792000,2311.225060

-12.518022,18.945934,67.238434,18.379999,-0.078151,-0.031963,0.342669,7.792000,2315.464377

-10.429564,20.325466,70.792648,18.379999,-0.134375,-0.068735,0.305365,7.792000,2303.938893

-0.600404,14.797762,74.576775,18.368235,-0.082681,-0.119895,0.217166,7.796000,2294.421618

5.157223,23.247391,85.220245,18.391764,0.021772,-0.033029,0.284847,7.792000,2284.230985

6.182291,22.950407,70.744743,18.371176,0.103843,0.099670,0.411417,7.792000,2272.641512

18.703453,15.525848,56.460850,18.377058,-0.080283,-0.000787,0.476434,7.792000,2249.811960

1.823356,9.634100,70.342384,18.385881,-0.079217,0.060500,0.423408,7.792000,2235.685000

-10.640326,29.484020,78.341751,18.382940,-0.150096,0.120987,0.124437,7.792000,2247.627042

-7.181918,26.130993,71.012985,18.359411,-0.193796,0.288325,-0.061554,7.792000,2248.354854

13.970894,23.371931,69.623878,18.368235,-0.151162,-0.060741,-0.068749,7.796000,2255.293112

5.387145,14.788182,65.255363,18.377058,-0.130644,0.221443,-0.279254,7.796000,2269.669668

5.933209,25.671150,57.102715,18.377058,-0.103731,0.175878,-0.529462,7.792000,2256.392563

7.935445,10.419666,68.847893,18.385881,-0.207652,0.193465,-0.705061,7.792000,2204.101580

3.519030,21.360115,76.933479,18.371176,-0.068825,0.154561,-0.881193,7.788000,2213.941338

-0.293842,5.600887,67.238434,18.371176,-0.043244,0.033054,-0.854547,7.792000,2217.122733

-3.857631,11.463895,69.623878,18.382940,0.063607,0.031988,-0.870001,7.788000,2215.354161

-6.214330,22.289383,70.601044,18.382940,0.103843,-0.183846,-0.605138,7.788000,2215.707579

-3.723510,28.152390,72.402100,18.400587,0.092119,-0.205963,-0.270994,7.788000,2210.065185

-2.066156,27.999109,73.379265,18.385881,0.039093,-0.211292,0.083401,7.784000,2217.476786

-3.378627,19.348299,65.868484,18.391764,0.123295,-0.156667,0.234752,7.796000,2267.075820

-4.030072,15.027684,67.334236,18.394705,-0.154892,-0.205430,0.247809,7.792000,2227.079237

-21.801117,18.409451,66.740273,18.400587,-0.038714,-0.140146,0.261132,7.788000,2217.122733

-15.334565,16.522175,70.323219,18.400587,0.058544,-0.296027,0.242480,7.788000,2214.647538

9.372457,24.828102,78.016022,18.400587,0.162198,-0.102309,0.247276,7.792000,2208.307843

-9.030873,29.024178,66.222946,18.403528,0.036961,0.009605,0.297637,7.792000,2187.779955

-1.088988,12.623084,72.344620,18.412352,-0.015532,-0.077794,0.213968,7.788000,2164.926672

6.440953,20.382946,57.121876,18.412352,0.086789,-0.051947,0.128167,7.788000,2177.829383

6.517594,22.782757,-0.416075,35.771175,0.053482,-0.060741,-0.068749,7.788000,2188.469628

-9.356596,13.240999,0.814965,36.527058,0.121962,0.007740,-0.000268,7.788000,2179.538416

-16.340473,23.994637,65.006279,18.441763,-0.011802,0.043713,-0.035974,7.788000,2176.122893

-2.545160,23.745554,56.518330,18.415293,0.002054,-0.081791,-0.055692,7.792000,2165.601937

11.029810,28.420631,69.729256,18.427057,0.158468,-0.051148,-0.079407,7.792000,2154.513564

-3.033744,19.721922,70.926765,18.444704,0.075065,-0.069534,-0.120442,7.784000,2178.512700

3.423229,21.685837,65.082916,18.424116,-0.022460,-0.058076,-0.147089,7.792000,2170.340658

-0.226781,19.606960,78.035187,18.435881,0.101711,-0.154269,-0.197184,7.792000,2167.630275

6.211031,22.557625,74.001976,18.447645,-0.039247,-0.108970,-0.120709,7.788000,2188.469628

-9.442817,4.566239,54.180790,18.432940,-0.118920,-0.137748,-0.056758,7.788000,2154.179215

-21.983137,0.121082,68.273087,18.447645,0.059877,-0.168924,0.040501,7.788000,2148.845532

-19.952162,6.290653,57.869122,18.429998,0.013246,-0.303754,0.147619,7.784000,2146.520349

-3.656449,24.262878,63.799191,18.453527,0.131022,-0.239271,0.501215,7.788000,2164.251831

-4.633617,12.862586,56.662029,18.441763,0.107840,-0.035160,0.526795,7.788000,2155.182260

-4.892279,17.049080,72.373360,18.453527,0.066805,-0.032229,0.542783,7.788000,2169.323417

3.394488,23.640173,70.993828,18.453527,0.098514,-0.044220,0.368250,7.788000,2185.713691

13.175748,33.114872,72.622444,18.450586,0.002321,0.063164,0.320020,7.792000,2170.679879

-3.589388,17.173620,72.842781,18.447645,-0.110926,0.159890,0.284314,7.788000,2162.903419

5.732028,12.565604,70.811806,18.441763,-0.052837,0.027991,0.170535,7.792000,2166.953738

-3.455267,9.844862,67.391716,18.444704,-0.182604,0.048242,0.054357,7.788000,2141.554492

-7.306459,29.349899,68.340149,18.438822,-0.128512,0.129780,0.087398,7.784000,2122.243649

-1.472191,20.287146,67.966522,18.432940,0.007916,0.285128,0.005328,7.788000,2166.277626

5.875729,20.986492,55.589062,18.441763,0.010048,0.150031,-0.105254,7.792000,2149.177974

10.205924,6.693016,62.764542,18.438822,-0.027523,0.162821,-0.122041,7.784000,2149.843492

2.771783,11.962059,63.741707,18.429998,-0.035783,0.109795,-0.093263,7.788000,2155.851593

-2.190697,35.097946,57.581718,18.438822,0.058811,0.129780,0.009058,7.792000,2130.710418

-17.394281,18.428612,77.067596,18.429998,-0.068825,0.092475,0.110048,7.788000,2150.176358

-8.072865,11.358514,68.531746,18.435881,-0.134641,-0.042621,0.112446,7.788000,2174.759438

-15.353724,4.250096,49.141670,18.424116,-0.126114,-0.111901,0.074342,7.788000,2166.615576

-1.357230,17.432283,78.035187,18.418234,-0.038182,-0.036759,-0.043968,7.792000,2162.566528

0.367184,24.195818,80.094902,18.418234,0.100912,-0.045552,-0.133233,7.788000,2178.854464

16.710798,30.068405,71.463249,18.409410,-0.003808,-0.018373,-0.116179,7.796000,2183.994911

8.385709,23.755135,64.795517,18.418234,-0.024592,0.037051,-0.123373,7.792000,2164.589145

1.861676,9.672421,60.130020,18.424116,-0.149296,-0.011978,-0.145490,7.784000,2115.776190

-4.556976,21.331375,68.474266,18.424116,-0.035783,-0.063139,-0.175067,7.780000,2114.809589

3.691471,22.988728,83.946091,18.412352,0.109972,-0.018107,-0.127370,7.780000,2112.236081

10.828629,25.786110,56.412949,18.415293,0.141681,-0.058609,-0.062620,7.784000,2119.005046

13.185328,28.497272,70.351959,18.418234,-0.047508,-0.019439,0.087665,7.788000,2136.940569

-5.543725,26.839920,68.560486,18.418234,0.149142,-0.011445,-0.010926,7.788000,2474.752983

-1.366810,27.453045,67.947365,18.427057,0.049485,-0.010113,-0.051429,7.784000,2115.453919

14.478639,32.722088,75.707230,18.415293,0.031099,-0.027433,0.018118,7.788000,2156.186365

-9.768539,24.272459,68.206024,18.415293,0.020707,0.042380,0.024247,7.792000,2186.746399

2.608922,24.607761,77.326256,18.415293,-0.113857,-0.104174,0.108715,7.792000,2142.545884

-12.786263,21.752897,83.907776,18.412352,-0.117054,0.046910,0.229956,7.788000,2139.574675

-9.481137,16.627556,63.607586,18.435881,-0.068292,0.029057,0.313359,7.784000,2126.794219

-8.436908,15.334247,68.407204,18.415293,-0.065094,0.039449,0.389567,7.784000,2125.817447

12.936246,20.507488,60.762306,18.409410,0.009249,0.020530,0.330945,7.780000,2098.509788

3.241207,14.816922,68.713768,18.418234,-0.071489,0.033587,0.174798,7.788000,2088.724271

2.149078,32.645447,61.969395,18.400587,-0.117854,0.097005,0.083668,7.784000,2097.558866

-2.937943,25.613670,59.698917,18.429998,-0.026990,0.239030,-0.039438,7.792000,2114.165682

-10.630746,15.420467,74.672577,18.403528,-0.001943,0.075955,-0.188923,7.780000,2106.148949

10.934010,22.423504,68.119804,18.403528,-0.096004,-0.004784,-0.195318,7.780000,2122.568039

-1.864974,15.248026,57.610458,18.424116,0.136884,0.054638,-0.243548,7.788000,2116.421156

7.619303,31.754501,66.893555,18.421175,0.038293,0.084748,-0.233689,7.788000,2106.148949

6.852897,19.693182,70.668106,18.409410,-0.028056,0.143103,-0.230225,7.784000,2126.468558

-3.014584,18.390291,62.046036,18.403528,-0.066693,0.036252,-0.270727,7.784000,2164.589145

3.509449,7.296561,47.187332,18.406469,-0.053103,-0.086588,-0.279520,7.788000,1618.584909

-6.702914,9.605360,77.469963,18.429998,-0.012335,-0.123626,-0.352798,7.784000,1586.046752

-3.311566,20.871531,79.165634,18.429998,-0.039247,-0.031696,-0.320023,7.784000,1585.865594

-13.303588,22.557625,70.054977,18.412352,-0.097070,-0.079926,-0.277922,7.784000,2026.538229

-10.314604,26.657898,71.051308,18.403528,-0.020329,-0.126024,-0.097260,7.780000,2046.549763

-11.876157,31.821560,78.667473,18.432940,0.053482,0.023461,0.097790,7.780000,2095.975690

4.591998,35.107529,59.191170,18.421175,0.063874,-0.124159,0.244878,7.784000,2122.892429

-6.904096,29.196619,55.272919,18.424116,0.053482,0.040782,0.321352,7.788000,2092.186197

-3.685189,19.281239,78.839912,18.432940,-0.019529,-0.155601,0.220363,7.784000,2128.750517

14.219976,37.109764,56.623711,18.418234,-0.100534,-0.064471,0.164406,7.784000,2098.192814

-0.475863,29.273260,74.011551,18.453527,-0.070956,0.132978,0.132164,7.788000,2071.585845

-3.953431,22.136101,75.304863,18.429998,0.127558,0.078886,0.003996,7.784000,2130.710418

5.751188,20.315886,60.216240,18.432940,0.124627,0.019997,-0.031444,7.784000,1999.400922

-0.236361,31.141375,70.936348,18.438822,0.148076,0.039716,0.123637,7.780000,1611.821134

10.866949,26.303434,64.479370,18.412352,0.104642,0.098337,0.268060,7.792000,2175.100143

-2.516420,28.765514,72.009315,18.432940,0.062541,0.190267,0.244878,7.784000,1044.912285

-7.440580,19.951843,69.595139,18.438822,-0.028322,0.120454,0.112712,7.784000,711.000496

-14.347816,23.371931,63.396828,18.415293,0.112903,0.161223,0.030375,7.784000,711.000496

3.566930,25.671150,56.911114,18.406469,0.123028,0.004276,-0.061554,7.788000,711.000496

3.509449,23.170750,65.561920,18.429998,0.044955,0.081817,-0.042369,7.784000,711.000496

-5.007240,24.100018,76.147911,18.418234,0.077996,0.033587,-0.032243,7.788000,711.000496

-16.168032,20.746990,50.492462,18.424116,0.020973,-0.001053,-0.018654,7.784000,711.000496

-5.419183,15.027684,82.164200,18.412352,-0.042978,-0.128156,0.001597,7.784000,711.000496

2.493961,23.256969,78.533348,18.412352,-0.004341,-0.074330,0.033040,7.788000,711.000496

7.715104,24.550282,58.855869,18.438822,0.000988,0.028258,0.114578,7.788000,49.731890

-9.672738,16.330574,68.388046,18.418234,0.032165,0.021063,0.087931,7.788000,291.138266

-7.842943,11.780038,65.332001,18.424116,-0.046175,-0.000787,0.064216,7.792000,397.419572

-8.781791,9.844862,59.833038,18.421175,-0.031786,-0.062073,0.049561,7.788000,371.587135

6.105650,20.679930,66.433708,18.403528,0.064939,-0.058342,0.089797,7.784000,371.199737

18.358570,38.565933,68.388046,18.444704,0.031898,0.127115,0.157478,7.788000,371.199737

-1.884135,29.522341,60.800625,18.418234,-0.063762,0.375458,0.139359,7.792000,371.199737

-2.171537,25.182566,75.189903,18.415293,-0.049373,0.201458,-0.125239,7.788000,371.199737

13.626012,26.935720,70.284904,18.427057,-0.064561,0.125517,-0.295242,7.792000,371.199737

11.393853,18.639372,66.510353,18.444704,-0.165817,0.266475,-0.463380,7.780000,371.199737

-2.899623,17.499344,67.334236,18.418234,-0.128246,0.091143,-0.698932,7.792000,68.756416

9.152115,30.058826,68.685028,18.432940,0.024970,0.077553,-0.826834,7.784000,68.756416

-5.716166,26.035192,76.971794,18.424116,0.080661,0.118855,-0.770611,7.788000,68.756416

-0.897387,23.467731,75.917992,18.450586,0.107040,0.087146,-0.661361,7.792000,68.756416

8.127047,26.035192,65.935547,18.429998,0.081460,-0.102842,-0.383174,7.792000,81.669880

-0.657885,11.166913,65.149979,18.447645,0.030033,0.032255,-0.248611,7.788000,81.669880

-19.875521,10.362186,68.014427,18.444704,0.096915,0.050108,-0.057291,7.788000,169.587683

-10.898989,15.956952,68.110222,18.447645,0.165662,-0.128156,-0.004531,7.792000,169.587683

-12.029438,27.606325,79.951202,18.462351,0.174722,0.062631,0.048495,7.792000,169.587683

-12.039018,31.409616,76.186234,18.459410,0.073999,-0.163329,0.129233,7.796000,169.587683

-25.431967,21.580456,75.898827,18.453527,-0.036050,-0.018373,0.180660,7.792000,1601.411522

-20.306623,7.948007,84.243073,18.474117,-0.130111,-0.232609,0.256069,7.792000,359.913943

7.360641,20.335047,61.643673,18.482941,0.022572,-0.238738,0.220896,7.796000,359.913943

9.267076,26.964460,67.947365,18.474117,-0.101866,-0.098845,0.135362,7.788000,359.913943

-6.013148,25.786110,84.635857,18.474117,-0.101067,0.030123,-0.051429,7.792000,359.913943

-9.069194,17.049080,74.423492,18.471176,-0.029921,0.045311,-0.127903,7.788000,359.913943

-9.701479,16.570076,61.270050,18.468235,0.063874,0.040782,-0.255805,7.792000,81.943630

3.346588,12.862586,65.590660,18.485882,0.145145,-0.098578,-0.251542,7.788000,81.943630

-1.711693,21.676258,69.068230,18.482941,0.202967,0.021863,-0.236087,7.780000,81.943630

0.462985,21.034391,51.096004,18.500587,0.208030,-0.066070,-0.171337,7.784000,81.943630

-3.675609,17.528084,57.993660,18.497646,0.167261,-0.103908,-0.300305,7.788000,81.943630

6.718776,28.899635,72.517059,18.509411,0.099846,-0.123892,-0.263000,7.780000,70.899659

-4.183353,20.488327,66.548668,18.503529,-0.104531,0.001612,-0.163076,7.784000,70.899659

-25.269104,11.310614,61.365849,18.509411,-0.056035,-0.030364,-0.117778,7.788000,70.899659

-4.480336,29.982185,68.895790,18.506470,0.188045,-0.090052,-0.151618,7.792000,70.899659

6.565495,20.076384,84.865784,18.524117,0.203233,-0.067669,-0.038638,7.792000,70.899659

-4.374955,18.984255,80.583488,18.521175,0.097981,-0.044220,-0.006929,7.784000,70.899659

-2.133217,24.128757,71.616531,18.521175,0.040691,-0.078860,0.022382,7.788000,70.899659

1.746715,11.952479,75.774284,18.509411,-0.034984,-0.108437,0.115910,7.792000,51.163365

14.018795,17.872967,63.971630,18.529999,-0.071223,-0.065803,0.076207,7.784000,1494.547384

-3.119965,9.634100,68.397629,18.541763,-0.088809,-0.100444,0.043965,7.784000,1221.807257

-10.467885,33.076550,71.032150,18.562351,0.007650,-0.136150,-0.057557,7.780000,1613.131937

-20.747309,25.613670,73.915749,18.529999,-0.046442,0.002144,-0.126571,7.788000,1040.059890

-19.281555,31.246756,71.827293,18.547646,-0.027257,-0.144676,-0.105787,7.792000,1590.406524

-1.864974,37.368423,71.080048,18.547646,0.108906,-0.079659,-0.004531,7.784000,899.924805

-19.195335,16.627556,79.117737,18.547646,0.036961,-0.094315,0.016519,7.792000,900.391579

-10.793608,17.959187,67.870720,18.559410,-0.132776,-0.198768,0.098856,7.784000,900.391579

-5.035980,24.713142,64.163231,18.556469,0.048685,-0.107638,0.143089,7.788000,900.391579

1.191071,29.694782,52.619240,18.565292,0.152339,-0.019439,0.225959,7.788000,900.391579

-3.579808,3.014266,84.243073,18.574116,0.020440,-0.103641,0.258201,7.784000,900.391579

-21.178411,16.474276,92.865143,18.562351,0.097714,0.118855,0.307496,7.788000,900.391579

-11.205551,23.458153,49.649414,18.568233,0.111837,0.083416,0.117242,7.792000,900.391579

-0.964447,20.038063,86.015388,18.579998,0.120897,-0.065271,0.073542,7.776000,900.391579

-2.276918,32.760406,55.435780,18.556469,-0.043511,-0.023969,0.033040,7.780000,900.391579

-8.216566,53.903641,0.608993,18.574116,-0.010469,0.077287,0.113512,7.776000,900.391579

-0.638724,-50.001888,145.632202,18.585880,-0.144500,-0.112434,0.081803,7.784000,900.391579

-0.063920,23.132429,60.522804,18.582939,0.085990,-0.093249,0.098590,7.784000,900.391579

-6.568793,58.118874,44.581551,18.603529,-0.089076,0.243826,0.154813,7.780000,900.391579

-18.352289,33.890858,91.313171,18.612352,-0.073888,0.283262,0.155879,7.784000,900.391579

-6.798715,26.265114,81.254089,18.600588,-0.034185,0.227039,0.066081,7.788000,900.391579

-6.243070,29.666042,52.389317,18.600588,0.123828,0.232635,0.026112,7.784000,900.391579

7.705524,5.687108,79.769180,18.606470,-0.058433,-0.117497,0.092195,7.776000,24.853260

-2.257758,2.813084,73.331367,18.606470,0.149408,0.063431,0.157212,7.780000,24.853260

2.972965,93.019096,40.500439,18.597647,0.643962,0.452733,0.182792,7.784000,24.853260

13.731392,-5.923947,78.408806,18.609411,-0.404834,-0.168658,0.044231,7.784000,24.853260

5.894889,16.311413,66.644470,18.606470,-0.003275,0.295786,-0.058090,7.788000,24.853260

-11.866576,26.964460,91.111992,18.606470,-0.125848,0.190001,-0.224096,7.784000,24.853260

-16.752417,29.369061,70.227425,18.603529,-0.114923,0.253419,-0.282718,7.784000,24.853260

5.530846,38.278534,69.882538,18.585880,0.062541,0.144435,-0.239551,7.784000,856.991868

-0.111820,21.120613,75.860504,18.579998,0.082792,0.254218,-0.179597,7.776000,1470.957602

0.692906,11.914159,60.062958,18.588821,-0.000344,0.116457,-0.223297,7.776000,2008.656100

-13.169467,22.107361,57.265575,18.594706,-0.153293,0.008007,-0.300038,7.780000,1577.757011

10.646607,28.267351,76.234131,18.577057,0.107840,0.121786,-0.258470,7.788000,1518.075826

7.322320,26.744118,55.215439,18.577057,0.001788,0.126582,-0.175067,7.784000,1518.075826

-23.420149,16.340155,73.906174,18.565292,-0.002742,0.167618,-0.065018,7.788000,298.164932

-4.403695,18.217850,63.071102,18.571175,0.071601,0.063431,-0.298972,7.776000,189.920389

8.337809,29.924706,71.721916,18.574116,0.172057,0.055171,-0.441796,7.780000,189.920389

11.585455,27.405144,69.116135,18.556469,0.126492,0.079419,-0.525998,7.776000,189.920389

3.193307,33.727997,68.445526,18.565292,0.029500,0.040782,-0.627254,7.780000,189.920389

-5.993988,28.363152,73.676247,18.547646,0.098247,0.081550,-0.628853,7.784000,189.920389

-7.239398,22.490564,79.769180,18.559410,-0.003009,0.037850,-0.458317,7.788000,189.920389

-13.188627,8.685673,74.835442,18.544704,-0.012868,-0.324006,-0.480167,7.784000,189.920389

4.965621,16.359314,61.145508,18.547646,0.079595,-0.140946,-0.280053,7.792000,189.920389

-2.957103,11.224393,69.451439,18.547646,-0.091474,-0.214490,-0.207576,7.788000,189.920389

-24.723040,14.328339,63.071102,18.562351,0.078529,-0.168924,-0.213171,7.776000,189.920389

11.853697,12.920067,74.040291,18.550587,0.045221,-0.435920,-0.247545,7.780000,189.920389

4.256696,25.000544,73.091866,18.541763,-0.051505,-0.044220,-0.157481,7.784000,189.920389

-12.479701,22.011560,50.300858,18.562351,-0.007005,-0.082058,-0.056758,7.788000,189.920389

4.170475,23.381512,62.256798,18.553528,-0.065894,-0.261387,0.065016,7.792000,189.920389

-7.392680,18.514832,69.202354,18.571175,-0.005140,-0.068735,0.211303,7.784000,189.920389

-11.445053,30.796492,69.882538,18.577057,0.064406,-0.164128,0.177729,7.784000,189.920389

4.869821,35.375771,81.991760,18.571175,0.075864,0.004809,0.187322,7.784000,189.920389

-30.078304,21.063133,72.593704,18.556469,-0.144500,-0.044220,0.144421,7.788000,189.920389

-17.145199,15.841990,63.348927,18.597647,-0.218843,-0.142811,0.217699,7.784000,189.920389

-19.195335,18.447771,73.925331,18.577057,-0.147165,-0.076462,0.249408,7.796000,189.920389

-7.134017,23.640173,62.898663,18.585880,0.064140,-0.162263,0.264596,7.784000,189.920389

-0.188461,32.846630,61.701153,18.571175,0.089188,-0.031696,0.178529,7.788000,189.920389

-10.716967,16.799997,64.939217,18.585880,0.011647,-0.064205,0.041567,7.788000,189.920389

14.344518,22.777966,67.899460,18.579998,-0.046708,-0.235540,-0.117245,7.784000,189.920389

-0.380062,29.828903,81.273254,18.609411,0.014578,0.094074,-0.155349,7.792000,189.920389

1.947897,14.558260,58.693008,18.594706,-0.185269,-0.111901,-0.183860,7.788000,189.920389

-21.293373,12.527284,80.727188,18.562351,-0.095471,0.014668,-0.284317,7.788000,189.920389

0.510885,7.047479,62.956142,18.588821,-0.065361,-0.192373,-0.276856,7.788000,189.920389

-1.156049,4.805741,55.119637,18.600588,-0.023526,-0.212358,-0.098592,7.792000,189.920389

4.295016,12.747625,72.181755,18.577057,-0.018463,-0.134817,-0.013591,7.788000,189.920389

-4.528236,26.868660,58.673847,18.606470,0.011647,-0.090851,0.034639,7.792000,12.942391

7.724684,50.560192,71.099205,18.615294,0.233610,0.001878,0.076740,7.792000,12.942391

2.522702,38.594677,55.656124,18.582939,0.098780,0.136974,0.073542,7.792000,12.942391

-1.184789,24.023376,61.547871,18.600588,0.093184,0.074889,0.056489,7.792000,12.942391

8.337809,15.899470,64.124908,18.615294,0.019641,-0.009846,0.000265,7.792000,12.942391

12.198580,8.062967,58.491825,18.632940,-0.073355,0.009339,-0.062354,7.796000,12.942391

-2.985843,0.130662,50.425400,18.627058,-0.049373,-0.011712,-0.124972,7.784000,12.942391

9.717340,28.315252,59.363613,18.632940,0.010848,0.034653,-0.256338,7.792000,12.942391

11.010650,25.948973,65.456543,18.624117,0.107573,0.157226,-0.369318,7.788000,12.942391

3.107086,22.979149,64.029106,18.615294,0.053215,0.101801,-0.387171,7.792000,12.942391

-1.347650,22.605524,60.561123,18.618235,0.006318,0.124717,-0.516939,7.792000,12.942391

-6.051468,15.525848,76.531113,18.621176,0.097181,-0.003718,-0.611000,7.792000,12.942391

-5.476664,36.851101,65.849327,18.641764,-0.008071,-0.081258,-0.407422,7.796000,12.942391

-15.574067,31.888622,76.531113,18.632940,-0.050972,-0.069267,-0.235021,7.796000,12.942391

-30.969252,18.591473,66.577415,18.615294,0.161399,-0.049283,-0.030112,7.800000,26.400039

-4.413275,25.096346,74.231895,18.635881,0.294897,-0.246465,0.033306,7.800000,26.400039

2.992125,19.367458,79.424294,18.627058,0.218155,-0.174787,0.115110,7.796000,26.400039

-3.359467,19.156696,56.412949,18.644705,0.147809,-0.197436,0.193983,7.800000,26.400039

8.634790,19.338718,64.527275,18.621176,0.093451,-0.131886,0.180660,7.792000,26.400039

3.720211,16.953279,66.701950,18.612352,0.051350,-0.035427,0.045297,7.792000,26.400039

-15.257924,39.600582,53.596405,18.644705,0.117433,0.078886,-0.111916,7.792000,26.400039

1.775455,15.180965,84.482574,18.627058,0.058544,-0.090584,-0.238752,7.796000,26.400039

-0.073500,23.774294,86.178253,18.624117,0.063874,-0.146808,-0.281919,7.796000,26.400039

-7.383100,31.332975,64.335670,18.615294,0.033230,-0.106839,-0.166807,7.792000,26.400039

11.939918,28.736774,71.836876,18.618235,-0.032053,-0.260321,-0.082072,7.792000,26.400039

2.465221,25.814852,76.042526,18.624117,0.130489,-0.110836,0.002397,7.796000,26.400039

5.272184,38.019871,55.675282,18.635881,0.189111,-0.088719,0.073276,7.792000,26.400039

-15.334565,22.145681,81.694778,18.638823,-0.074953,-0.052214,0.344801,7.788000,26.400039

-8.168666,19.568640,82.758163,18.635881,0.069203,0.026659,0.375178,7.792000,26.392813

-8.168666,20.009323,49.007549,18.635881,0.067871,-0.007715,0.355993,7.792000,26.392813

-9.653579,7.373202,84.128113,18.635881,0.065739,-0.060474,0.398893,7.796000,26.392813

7.264840,27.050682,68.292244,18.627058,0.133420,0.046644,0.473236,7.800000,26.392813

2.513121,26.437555,44.294151,18.621176,-0.026724,0.137507,0.476967,7.796000,26.392813

3.442389,13.494871,89.138496,18.629999,-0.179940,0.087679,0.318688,7.792000,26.392813

-6.942416,18.744753,90.527611,18.638823,-0.110926,0.234233,0.102853,7.792000,26.392813

-4.547396,35.404510,55.426201,18.641764,0.003653,0.175612,-0.114047,7.792000,26.392813

-9.519457,28.209871,52.197716,18.653528,-0.025924,0.247024,-0.217168,7.788000,26.392813

3.854332,43.681698,76.722717,18.656469,0.115034,0.251020,-0.203046,7.792000,26.392813

-16.761995,34.005817,71.750656,18.638823,0.004719,0.168151,-0.085003,7.788000,26.392813

-2.056576,8.695252,82.671944,18.659410,-0.202589,-0.035960,-0.081805,7.792000,26.392813

-9.768539,28.382313,67.018097,18.656469,0.017776,0.224641,-0.033309,7.792000,26.392813

-9.011713,30.719851,57.600880,18.653528,0.102777,0.008806,-0.016256,7.796000,26.392813

-7.881263,10.496307,76.665237,18.650587,-0.119986,0.088212,0.021582,7.796000,26.392813

-18.745071,13.494871,66.280426,18.668234,-0.034185,0.042647,-0.022917,7.788000,26.243520

-8.829692,14.625320,66.836075,18.662352,0.029766,-0.015975,-0.186792,7.796000,26.243520

-8.714730,20.584129,68.071907,18.650587,-0.075486,-0.062339,-0.365055,7.788000,26.243520

-0.485443,21.206833,73.302628,18.656469,-0.007538,-0.034361,-0.374381,7.788000,26.243520

-4.135453,20.632029,72.584122,18.650587,-0.020062,-0.026367,-0.289646,7.788000,26.243520

-1.644633,32.884949,69.499336,18.638823,0.115301,-0.051681,-0.170804,7.788000,26.243520

9.698179,44.984589,69.029915,18.671175,0.108373,-0.009846,0.007993,7.792000,26.243520

-1.826654,34.092037,66.385811,18.677057,0.089454,0.109795,0.186789,7.796000,26.243520

-12.163559,22.490564,73.657089,18.671175,-0.004341,0.023195,0.200112,7.792000,26.243520

-7.565121,23.247391,71.089630,18.656469,-0.017664,-0.061540,0.121239,7.792000,26.243520

2.493961,18.716013,61.394588,18.665293,0.030033,0.055437,0.039968,7.792000,26.243520

1.267711,13.973875,68.091064,18.671175,-0.120518,-0.004784,-0.035174,7.792000,26.243520

-3.024164,11.186072,74.097771,18.685881,-0.123450,0.124451,-0.097527,7.792000,26.243520

-3.560648,16.982019,61.404171,18.671175,-0.024592,0.009605,-0.112182,7.788000,26.243520

8.337809,21.513395,62.572941,18.679998,0.103843,0.098870,-0.142292,7.788000,26.243520

3.547770,29.589401,78.054344,18.682940,0.120897,0.148699,-0.124706,7.792000,25.762129

-0.111820,33.402271,72.162598,18.679998,-0.038981,0.223308,-0.179863,7.796000,25.762129

-13.696371,19.635700,70.792648,18.674116,-0.185269,0.145501,-0.272326,7.792000,25.762129

-14.644799,16.694616,79.788338,18.691763,-0.090675,0.015201,-0.348801,7.788000,25.762129

-20.335365,20.794889,67.305496,18.679998,-0.045110,0.034386,-0.377579,7.792000,25.762129

-8.638090,17.758005,56.547070,18.677057,0.029766,-0.127889,-0.355729,7.792000,25.762129

-6.750814,22.404343,63.301025,18.694704,0.118232,-0.100444,-0.317358,7.788000,25.762129

-4.173773,23.831776,69.911278,18.694704,0.046287,-0.146542,-0.260602,7.796000,25.762129

-5.476664,29.819324,77.115501,18.682940,0.000455,-0.176652,-0.250210,7.792000,25.762129

-3.512748,19.808142,62.745380,18.697645,0.082259,-0.037558,-0.194519,7.792000,25.762129

-1.788334,17.451443,68.838310,18.682940,0.008716,-0.337329,-0.278988,7.792000,25.762129

-1.778754,15.612069,73.714569,18.718235,0.075598,-0.190508,-0.323220,7.788000,25.762129

-14.395717,15.861152,69.106552,18.718235,0.059610,-0.181715,-0.301104,7.784000,25.762129

-0.083080,17.250261,69.547234,18.718235,0.165662,-0.327470,-0.209174,7.784000,25.762129

5.348825,21.628357,65.715202,18.730000,0.141148,-0.166260,-0.083138,7.792000,25.762129

0.798287,20.315886,59.478573,18.741764,0.090520,-0.213690,-0.050896,7.788000,25.762129

5.559586,27.730867,63.071102,18.724117,0.087056,-0.161996,-0.034641,7.792000,25.762129

-1.184789,26.504616,70.217842,18.753529,0.042823,-0.066869,-0.102056,7.792000,25.762129

-1.280590,25.834011,68.416786,18.762352,-0.016865,-0.132419,-0.196118,7.792000,25.762129

6.709196,21.101452,69.250252,18.750587,-0.033385,-0.105506,-0.219566,7.784000,25.762129

6.469694,19.012995,77.853165,18.756470,-0.034718,-0.095647,-0.201447,7.784000,25.762129

-3.924691,21.149353,72.057213,18.759411,-0.064561,-0.032229,-0.140694,7.792000,25.762129

-6.185590,33.363953,77.498703,18.782940,0.113436,-0.073531,-0.098326,7.788000,25.762129

-8.111186,30.748590,67.113899,18.762352,0.228814,0.036518,-0.051962,7.784000,25.762129

-0.839906,27.318924,63.799191,18.768234,0.121429,-0.163595,-0.027181,7.784000,25.762129

-0.092660,34.963825,62.611259,18.782940,0.134486,-0.027433,0.145221,7.792000,25.762129

-9.969721,16.196453,72.459579,18.777058,0.124361,0.105265,0.317622,7.788000,25.762129

-23.257288,22.356443,72.775719,18.788822,0.077463,0.032788,0.451653,7.788000,25.762129

-15.248344,23.027048,60.733562,18.785881,-0.028056,-0.056477,0.634179,7.784000,25.762129

-23.477631,15.257606,84.587959,18.762352,-0.097070,-0.074863,0.831628,7.788000,25.762129

-18.438509,26.916559,72.612862,18.782940,0.009515,-0.102042,0.754354,7.792000,12.749327

-6.262230,23.352772,59.756397,18.771175,0.002854,0.039449,0.601671,7.788000,12.749327

-11.013949,18.122047,70.419022,18.768234,0.057478,0.067694,0.404222,7.792000,12.749327

3.902233,26.130993,64.393150,18.765293,0.020174,0.053572,0.139625,7.788000,12.749327

13.597271,32.108963,68.934113,18.765293,0.002321,0.170549,-0.004265,7.788000,12.749327

14.967222,29.378639,82.940186,18.771175,0.026835,0.277667,-0.152684,7.792000,12.749327

1.066530,33.890858,65.111656,18.765293,-0.004341,0.273403,-0.407689,7.788000,12.749327

-4.173773,22.758806,68.426369,18.777058,0.084924,0.098870,-0.663759,7.780000,12.749327

3.681891,28.640974,75.697647,18.756470,-0.038981,0.053305,-0.724513,7.784000,12.749327

-0.418383,27.462624,68.550911,18.759411,-0.023260,-0.011179,-0.481233,7.780000,12.749327

1.497633,32.415524,70.763908,18.774117,0.067871,0.014135,-0.360525,7.788000,12.749327

-4.346215,21.254734,54.516094,18.756470,-0.011535,-0.093782,-0.268862,7.784000,12.749327

-2.046996,18.639372,64.776352,18.774117,0.104109,-0.049816,-0.317625,7.788000,12.749327

6.335573,22.634266,65.973869,18.782940,-0.017131,-0.139880,-0.343205,7.788000,12.749327

12.524302,33.785477,68.206024,18.794704,0.013779,-0.029831,-0.247811,7.792000,12.749327

0.146842,29.369061,82.432442,18.791763,-0.100800,-0.001852,-0.162543,7.792000,12.749327

-20.996389,9.270057,73.992393,18.800587,-0.150362,0.050641,-0.080473,7.792000,25.332976

-5.112621,23.324030,67.966522,18.797646,-0.048840,-0.129222,-0.160945,7.788000,25.332976

-3.972592,32.702927,73.867851,18.812351,0.086523,-0.042621,-0.222497,7.792000,25.332976

-3.119965,27.874567,67.544998,18.812351,0.045488,-0.175852,-0.096727,7.788000,25.332976

4.544098,25.460388,67.640800,18.800587,0.060143,-0.035693,0.103919,7.792000,25.332976

-8.590190,24.167078,76.119171,18.797646,0.064673,0.019198,0.219031,7.792000,25.332976

-8.609349,24.761042,67.851562,18.818233,0.052682,0.087412,0.328547,7.788000,25.332976

-20.412004,18.275330,71.798553,18.800587,-0.074154,-0.021571,0.371980,7.788000,25.332976

-10.103842,24.847263,63.483047,18.824116,-0.025125,-0.082058,0.328813,7.792000,25.332976

-8.973392,34.302799,77.517860,18.827057,0.014045,-0.012244,0.282182,7.788000,25.332976

-15.430366,33.038231,61.998135,18.818233,0.087589,0.043180,0.230755,7.788000,25.332976

-13.284428,32.233505,78.389648,18.821175,0.198970,0.022396,0.125502,7.792000,25.332976

6.814577,25.287947,54.458614,18.841763,0.040958,-0.042621,0.027444,7.792000,25.332976

-12.086918,13.581092,88.563690,18.827057,0.029766,0.032788,0.077006,7.792000,25.332976

6.182291,16.761677,67.410881,18.829998,0.059877,-0.280839,-0.084736,7.792000,25.332976

7.427701,14.280438,48.432743,18.838821,-0.018197,-0.030364,-0.144957,7.792000,25.555694

-7.613021,18.763914,73.178085,18.832939,-0.004341,0.020797,-0.237952,7.792000,25.555694

-0.609984,32.013161,63.799191,18.827057,-0.017664,-0.158266,-0.267263,7.792000,25.555694

-6.578373,24.071278,77.383743,18.838821,0.015377,-0.017307,-0.114314,7.788000,25.555694

-6.367611,36.496639,69.805901,18.862352,0.063874,-0.044220,-0.096461,7.792000,25.555694

-5.141361,39.955048,64.546432,18.859411,-0.010469,-0.085522,-0.015723,7.796000,25.555694

4.965621,38.355175,64.038689,18.850588,0.017509,-0.061807,-0.031977,7.796000,25.555694

0.817447,20.536228,63.952469,18.871176,0.039625,-0.057010,-0.098859,7.796000,25.555694

5.185963,34.379440,61.998135,18.877058,0.002321,0.042114,-0.058890,7.792000,25.555694

0.510885,18.668114,67.698280,18.862352,-0.067492,0.055970,-0.020252,7.796000,25.555694

-3.484008,12.939227,64.393150,18.894705,-0.057900,-0.099111,0.014388,7.792000,25.555694

-5.649105,25.211306,68.052742,18.879999,-0.014466,-0.102042,-0.007729,7.796000,25.555694

-9.691898,21.618776,60.944324,18.874117,0.028967,0.013869,-0.019453,7.792000,25.555694

13.405669,34.389023,63.396828,18.888823,0.050817,-0.071666,0.239282,7.796000,25.555694

2.608922,31.955681,76.693977,18.882940,0.072134,0.109529,0.409818,7.796000,25.929977

-8.389008,31.304235,69.949600,18.885881,-0.041379,0.159091,0.408486,7.796000,25.929977

-10.793608,30.786911,70.102882,18.900587,-0.013667,0.086347,0.367184,7.804000,25.929977

-15.545326,30.739012,68.560486,18.900587,0.033230,0.119921,0.410884,7.804000,25.929977

-3.206185,37.119343,72.517059,18.882940,-0.040580,0.181740,0.325882,7.800000,25.929977

-18.534309,28.123650,74.337273,18.897646,0.047619,0.239563,0.225959,7.800000,25.929977

-14.137055,14.979784,71.779396,18.900587,0.068670,0.091143,0.054623,7.800000,25.929977

-7.363939,15.228866,61.442490,18.900587,-0.038714,-0.056744,-0.052228,7.804000,25.929977

1.191071,12.268621,80.851730,18.915293,-0.035783,-0.063405,-0.038905,7.800000,25.929977

2.532281,27.817087,52.935379,18.906469,-0.059765,0.119388,0.043432,7.796000,25.929977

-4.068392,25.690310,66.184631,18.909410,0.035096,0.212650,0.058620,7.796000,25.929977

10.886109,32.616707,58.932510,18.906469,0.084125,0.033854,-0.173468,7.800000,25.929977

-7.842943,24.214977,71.242912,18.894705,0.008716,0.160157,-0.221165,7.796000,25.929977

-2.200277,18.802235,71.865616,18.915293,-0.012068,-0.047418,-0.279787,7.804000,25.929977

-4.020492,20.632029,79.750023,18.903528,0.003120,0.021596,-0.218767,7.796000,25.929977

-1.002767,31.035994,55.953106,18.924116,0.082792,0.049308,-0.134032,7.804000,26.631530

-0.293842,33.977077,63.262703,18.924116,0.005785,0.175878,-0.066350,7.804000,26.631530

-18.266068,20.727829,89.684563,18.924116,0.001521,0.183339,-0.276323,7.804000,26.631530

1.143170,21.053553,76.234131,18.932940,-0.006206,-0.007182,-0.473772,7.804000,26.631530

9.008414,27.223122,73.254723,18.927057,-0.009937,0.045045,-0.637912,7.804000,26.631530

13.348189,25.441229,68.962852,18.932940,-0.069358,0.029324,-0.685609,7.804000,26.631530

4.678219,31.879040,68.196442,18.932940,0.047086,0.061299,-0.567566,7.804000,26.631530

-7.153178,18.304070,56.642872,18.941763,0.148076,0.027725,-0.519337,7.796000,26.631530

-9.337436,6.884618,72.392517,18.950586,-0.048041,-0.107105,-0.464445,7.804000,26.631530

11.087291,28.037430,81.177452,18.932940,0.111837,-0.168658,-0.054093,7.804000,26.631530

-15.535747,37.301365,61.231728,18.941763,0.024704,-0.010646,0.272323,7.808000,26.631530

-19.923422,21.532557,68.071907,18.959410,0.001521,-0.153203,0.287245,7.800000,26.631530

-8.973392,35.078785,54.487354,18.932940,0.086789,-0.056744,0.202510,7.804000,26.631530

-14.826820,21.369696,71.616531,18.953527,0.188312,-0.109237,0.177729,7.800000,26.612084

-21.963978,22.442663,62.869923,18.950586,0.132088,-0.172655,0.141490,7.800000,26.612084

-21.523294,22.988728,66.261269,18.947645,0.018841,-0.255258,0.155080,7.800000,26.612084

-16.934437,4.518338,64.172813,18.953527,-0.135707,-0.342658,0.252872,7.800000,26.612084

4.208795,5.581727,70.237000,18.962351,-0.126381,-0.308018,0.386103,7.796000,26.612084

-5.380863,14.673222,74.624680,18.953527,-0.118120,-0.191307,0.292574,7.792000,26.612084

-1.136889,30.355808,57.246414,18.950586,-0.019529,-0.152937,0.316290,7.796000,26.612084

-5.668265,22.720486,53.979610,18.941763,0.042024,-0.195837,0.157744,7.796000,26.612084

-0.734525,24.013796,63.866249,18.959410,-0.024592,-0.230744,0.151616,7.792000,26.612084

19.383640,27.663807,67.765343,18.959410,0.011114,-0.202765,0.257401,7.792000,26.612084

7.849225,23.946735,69.786736,18.956469,0.123561,0.057036,0.298703,7.796000,26.612084

0.175582,38.211472,53.682625,18.968235,0.066538,0.041847,0.266994,7.800000,26.612084

-4.442016,24.952644,83.160530,18.962351,-0.027257,0.058102,0.194783,7.792000,26.612084

5.540426,42.474606,48.116600,18.985882,-0.141303,0.009605,0.026911,7.800000,26.612084

10.943589,18.677692,74.950401,18.980000,-0.411229,0.125250,0.018651,7.796000,26.612084

12.600944,21.340954,106.315575,18.971176,-0.144234,0.100203,-0.003199,7.796000,26.612084

6.958278,21.810379,70.524406,18.977058,0.079328,0.225973,0.040767,7.800000,26.612084

-16.647036,27.175222,48.059120,18.980000,-0.080016,0.225707,0.245944,7.792000,26.612084

-12.747944,18.840553,80.094902,18.991764,-0.112258,0.098071,0.273389,7.792000,26.612084

-9.461977,22.480984,79.184792,18.988823,0.000988,0.269140,0.423674,7.796000,26.612084

4.141735,23.592274,70.591461,19.000587,0.013512,0.241961,0.434332,7.800000,26.612084

17.208961,23.189909,80.516426,18.988823,0.027901,0.339486,0.442326,7.796000,26.612084

-5.974828,29.359480,68.924530,18.982941,-0.064295,0.536935,0.373579,7.800000,26.612084

-14.002934,41.669880,43.930107,18.962351,-0.138371,0.459661,0.047163,7.804000,26.612084

-17.949924,36.534958,84.118538,18.977058,-0.106396,0.388515,-0.111649,7.796000,26.612084

1.832936,23.046209,66.203789,18.985882,0.046287,0.439676,-0.341606,7.800000,26.612084

-25.192465,56.145378,59.076210,18.977058,0.040691,0.346414,-0.807383,7.804000,26.612084

1.076110,23.007889,79.251854,18.950586,-0.005940,0.212916,-0.952605,7.800000,26.612084

5.195543,4.087235,61.873592,18.965292,-0.109594,0.045045,-0.899046,7.800000,26.612084

11.978238,2.132899,83.649109,18.971176,-0.233765,-0.125225,-0.975520,7.804000,26.612084

11.537555,22.404343,90.268944,18.950586,-0.011535,0.117789,-0.922228,7.796000,26.612084

-8.130345,30.461189,72.641602,18.974117,0.178186,0.127382,-1.022151,7.800000,12.983754

-16.139290,27.280603,63.387245,18.956469,0.107307,0.146834,-1.092497,7.800000,12.983754

-26.466614,29.263680,63.147743,18.988823,0.169659,-0.072731,-1.174035,7.800000,12.983754

-13.006606,25.699890,53.615566,18.965292,0.149941,-0.204897,-1.098360,7.800000,12.983754

-4.624037,15.525848,93.123810,18.956469,0.280774,-0.217687,-0.801254,7.804000,12.983754

-9.040453,50.972137,60.628181,18.959410,0.233077,-0.171056,-0.447925,7.800000,12.983754

-29.149036,48.835777,68.052742,18.982941,0.435056,0.013069,-0.168939,7.808000,12.983754

-8.321947,27.338083,82.231262,18.962351,0.277044,-0.221950,-0.027447,7.800000,12.983754

-2.535580,22.155262,63.559689,18.965292,-0.000610,-0.442581,0.046363,7.800000,12.983754

4.505777,16.646717,81.378632,18.965292,-0.150362,-0.411405,0.217166,7.800000,12.983754

-6.233490,23.228230,61.825691,18.962351,-0.108528,-0.130554,0.318421,7.796000,12.983754

7.801324,-7.878283,58.281063,18.968235,0.220021,-0.213690,0.190519,7.796000,12.983754

-0.485443,44.237343,63.358505,18.971176,-0.096004,-0.183846,-0.154283,7.796000,12.983754

-0.686625,35.145847,64.556015,18.974117,-0.128246,-0.237672,0.022382,7.796000,12.983754

3.087926,15.324666,103.738533,18.971176,-0.059232,-0.049549,0.252872,7.792000,12.983754

-26.715696,6.807977,58.079884,18.980000,-0.076286,-0.071399,0.291509,7.796000,26.156268

-34.762962,39.993366,62.496300,18.956469,0.167261,0.036252,0.372780,7.796000,26.156268

-3.340307,36.123016,64.469795,18.953527,0.105442,-0.025301,0.545714,7.792000,26.156268

-23.065687,27.251863,68.349724,18.974117,-0.048840,0.020530,0.593944,7.792000,26.156268

-22.222639,28.985857,78.217209,18.982941,-0.069358,-0.051681,0.473769,7.800000,26.156268

-26.418715,24.751463,76.071266,18.965292,0.030832,0.161756,0.374911,7.800000,26.156268

-24.876322,33.019070,60.503643,18.985882,0.124094,0.056236,0.224893,7.800000,26.156268

-16.704515,20.756569,63.655487,18.971176,-0.000077,0.008007,0.110581,7.804000,26.156268

6.364313,6.223592,83.294647,18.991764,-0.140237,-0.151071,0.003196,7.800000,26.156268

6.661295,7.564803,75.266541,19.009411,0.051883,0.099936,-0.094862,7.800000,26.156268

16.979040,42.244686,70.112457,18.994705,0.037494,0.000546,-0.420746,7.792000,26.156268

10.704087,61.759304,82.949768,19.003529,0.182982,0.224907,-0.644308,7.796000,26.156268

-0.418383,65.160233,34.311710,19.006470,0.232011,0.184138,-0.879860,7.792000,26.156268

34.960846,10.122684,89.224716,19.003529,-0.112791,-0.074863,-0.735171,7.792000,26.156268

-5.141361,23.678493,76.368248,19.006470,-0.109860,-0.016241,-0.577425,7.788000,26.156268

-11.061850,42.896130,68.081482,18.997646,0.017243,-0.016508,-0.601141,7.788000,26.156268

-15.928530,56.509422,63.789608,19.000587,0.020973,-0.065803,-0.428739,7.796000,26.156268

-10.803187,43.566734,72.727821,19.006470,0.263720,-0.006382,-0.330681,7.800000,26.156268

3.423229,46.210838,67.085159,18.985882,0.245335,-0.070333,-0.299239,7.800000,26.156268

18.684294,35.538631,67.784500,19.015293,-0.045376,-0.059941,-0.328550,7.796000,26.156268

7.849225,17.164040,84.022736,19.009411,-0.105064,-0.092183,-0.335744,7.800000,26.156268

-1.472191,70.055649,78.351326,19.006470,0.260789,0.035985,-0.391968,7.796000,26.156268

5.118903,27.644646,72.085960,19.003529,0.251996,-0.086588,-0.462847,7.800000,26.156268

-10.563685,-13.166486,71.664436,18.997646,-0.050705,0.045311,-0.270194,7.804000,26.156268

-2.324818,4.230936,66.203789,19.000587,-0.069091,-0.145742,0.061285,7.796000,26.156268

-35.059944,36.602020,46.880772,19.000587,-0.010736,0.022662,0.228357,7.800000,26.156268

-32.310463,8.474911,86.503975,18.991764,-0.034451,-0.009846,0.322152,7.792000,26.156268

-29.014915,27.041101,67.458778,18.980000,-0.010203,-0.021038,0.401824,7.804000,26.156268

-19.453997,37.157665,36.917488,18.997646,-0.100534,-0.087387,0.480963,7.800000,26.156268

-18.218166,2.295760,111.565460,18.997646,-0.054969,-0.157467,0.372513,7.800000,26.156268

-25.767269,30.164207,51.584591,18.974117,0.067071,0.034386,0.109781,7.800000,12.953704

-18.361868,10.582528,50.157158,18.977058,-0.036050,-0.150539,-0.017055,7.796000,12.953704

-7.574701,2.880145,73.168503,18.965292,-0.073621,-0.249396,-0.075144,7.800000,12.953704

8.816813,26.772860,66.500771,18.980000,-0.007272,-0.184646,-0.143891,7.796000,12.953704

21.692438,31.275496,59.363613,18.977058,-0.155692,-0.153736,-0.189723,7.800000,12.953704

-1.175209,31.131794,88.975632,18.982941,0.046554,0.168151,-0.212105,7.796000,12.953704

3.135827,34.724323,40.845322,18.977058,0.194174,0.055703,-0.537723,7.796000,12.953704

-5.687426,19.980583,75.199486,18.977058,-0.067492,-0.117497,-0.688807,7.792000,12.953704

-4.930599,19.501579,99.111359,18.977058,0.127025,-0.077261,-0.701864,7.792000,12.953704

9.880201,32.358044,62.237637,18.994705,0.119831,-0.111369,-0.536923,7.796000,12.953704

4.390817,37.119343,49.323692,18.974117,0.130223,-0.188110,-0.235821,7.792000,12.953704

1.823356,26.217215,85.086121,18.988823,0.101178,-0.012244,-0.271260,7.800000,12.953704

15.187564,42.963192,60.168339,18.988823,0.070802,-0.212624,-0.268596,7.796000,12.953704

-8.341107,22.816286,59.785137,18.991764,-0.090408,-0.073531,-0.267796,7.800000,12.953704

4.227955,23.879675,68.091064,18.988823,0.070802,-0.003451,-0.257671,7.804000,25.931816

1.679655,8.331209,59.775555,18.997646,0.125426,-0.032762,-0.265398,7.796000,25.931816

8.088726,16.435955,63.770451,18.985882,0.172857,-0.069800,-0.222231,7.800000,25.931816

-10.439145,20.555387,60.656925,18.965292,0.143013,0.088478,-0.151352,7.796000,25.931816

-0.245941,9.116776,81.915115,18.985882,0.046820,-0.106839,-0.112981,7.796000,25.931816

3.758532,23.285711,71.788971,18.977058,-0.223107,-0.086854,0.108449,7.796000,25.931816

-9.816440,2.017938,71.022568,18.991764,-0.204188,-0.140146,0.143355,7.792000,25.931816

-15.085483,30.844393,64.690132,18.968235,-0.096537,-0.026633,0.070078,7.792000,25.931816

-16.915277,32.549644,64.048271,18.982941,-0.088276,0.154561,0.024780,7.796000,25.931816

-23.381830,33.373531,67.362976,18.962351,-0.051505,0.162555,-0.002666,7.796000,25.931816

-16.072229,28.746355,60.494061,18.974117,0.024970,0.044246,-0.108718,7.800000,25.931816

-22.768703,10.266385,62.160995,18.965292,-0.075486,-0.122560,-0.227560,7.796000,25.931816

-35.337769,21.819958,78.772850,18.944704,-0.024326,-0.045552,-0.393566,7.800000,25.931816

0.903668,24.138338,75.189903,18.950586,0.003387,-0.280839,-0.415150,7.796000,25.931816

3.269948,12.987127,72.814041,18.956469,-0.049373,0.012270,-0.357594,7.800000,25.931816

15.283364,17.470604,81.991760,18.941763,-0.084812,-0.093249,-0.342406,7.796000,25.931816

-14.970522,-1.124328,58.951668,18.941763,-0.198858,-0.034094,-0.455386,7.792000,25.880054

-17.490082,15.200126,80.545166,18.941763,-0.057367,-0.246199,-0.688540,7.788000,25.880054

-10.410404,44.189442,68.464684,18.956469,-0.064828,-0.125225,-0.721315,7.792000,25.880054

2.733463,43.643375,75.879669,18.941763,0.242670,-0.079926,-0.646706,7.796000,25.880054

-3.790570,29.196619,67.736603,18.921175,0.181117,-0.157733,-0.527597,7.796000,25.880054

-6.549633,42.139305,64.958382,18.915293,0.147276,-0.133751,-0.342939,7.796000,25.880054

-2.583480,41.794422,64.948799,18.915293,0.250397,-0.113500,-0.197716,7.804000,25.880054

7.475602,19.080055,62.754959,18.906469,-0.034185,-0.185179,-0.117778,7.800000,25.880054

3.710631,10.141844,67.410881,18.915293,0.115034,-0.187843,-0.132433,7.800000,25.880054

9.985581,18.763914,67.219276,18.900587,-0.026191,-0.178517,-0.110850,7.800000,25.880054

7.772584,12.805106,74.279793,18.891764,-0.119453,-0.151604,0.001597,7.800000,25.880054

-8.906332,3.751932,73.091866,18.891764,-0.165551,-0.030097,-0.126837,7.796000,25.880054

-7.651341,22.892927,49.601513,18.900587,-0.019796,-0.125491,-0.200648,7.796000,25.880054

1.334772,13.025448,70.466927,18.891764,-0.188999,-0.073264,-0.127903,7.796000,25.880054

-1.146469,18.907616,68.972435,18.877058,-0.062963,0.000013,0.039968,7.796000,25.849173

-3.627709,25.067604,79.251854,18.885881,-0.227636,0.027991,0.050360,7.792000,25.849173

-21.005970,34.513561,90.288109,18.868235,-0.016865,0.243293,0.033839,7.796000,25.849173

-21.638256,43.365555,52.954540,18.888823,0.086256,0.141238,-0.119110,7.796000,25.849173

-1.644633,31.400036,63.090263,18.862352,0.048685,0.060766,-0.169471,7.796000,25.849173

10.033483,35.615273,65.312843,18.859411,0.137950,-0.064738,-0.233689,7.792000,25.849173

-7.181918,34.532722,83.083885,18.859411,-0.009937,0.021863,-0.218501,7.796000,25.849173

-29.081976,20.651190,73.637932,18.853529,-0.083214,0.061299,-0.257937,7.796000,25.849173

-9.164994,12.651825,67.525841,18.829998,0.014045,-0.130820,-0.378112,7.796000,25.849173

3.633990,25.469969,73.925331,18.838821,0.094250,-0.045819,-0.336011,7.796000,25.849173

3.748951,30.173786,68.646706,18.838821,-0.096004,-0.279773,-0.285649,7.796000,25.849173

2.369420,39.629322,74.969559,18.850588,-0.050172,0.104733,-0.255006,7.796000,25.849173

-8.302787,30.489929,87.471565,18.835880,0.068936,0.212117,-0.343738,7.792000,25.849173

-8.283627,9.135936,75.965889,18.841763,0.008716,-0.121228,-0.448458,7.788000,25.849173

0.587526,22.710905,42.550575,18.821175,0.184315,-0.147607,-0.711989,7.792000,25.849173

16.049772,18.380711,66.931877,18.806469,0.137950,-0.248330,-0.737303,7.792000,25.849173

-13.428129,19.127956,66.357071,18.827057,0.152339,-0.006649,-0.692271,7.796000,25.611219

2.781363,40.893894,59.219913,18.815292,0.159534,-0.142545,-0.648038,7.792000,25.611219

-8.159086,34.503983,57.064396,18.809410,0.140881,-0.070866,-0.552378,7.800000,25.611219

12.093199,34.571041,71.980576,18.812351,0.153938,-0.059408,-0.495089,7.804000,25.611219

15.503707,25.307106,56.959015,18.803528,0.184315,-0.060741,-0.450323,7.804000,25.611219

-0.121400,12.019540,69.681358,18.800587,0.024704,-0.126557,-0.427141,7.800000,25.611219

-9.787700,18.668114,80.171539,18.803528,0.061475,-0.143877,-0.391435,7.800000,25.611219

-16.148870,17.949608,62.553780,18.777058,0.178452,-0.110836,-0.338142,7.800000,25.611219

-21.944818,18.648952,71.990158,18.791763,0.364177,-0.111102,-0.365588,7.792000,25.611219

7.638463,25.968132,58.070301,18.794704,0.244535,-0.179849,-0.159079,7.800000,25.611219

-20.919750,25.316687,55.215439,18.791763,0.070535,0.006941,0.143355,7.796000,25.611219

-10.333764,11.607596,65.015862,18.782940,0.178452,-0.069534,0.107916,7.792000,25.611219

-8.149506,12.776365,56.786572,18.762352,0.113969,-0.091384,0.023181,7.792000,25.611219

-21.619095,33.392693,50.703224,18.765293,0.011380,-0.087920,0.018118,7.796000,25.611219

-22.874084,32.415524,101.420158,18.774117,-0.102932,-0.089252,0.036238,7.800000,25.611219

-23.803352,24.080856,67.583321,18.777058,-0.056301,-0.096180,-0.034641,7.796000,26.249820

-32.013481,9.835281,73.618767,18.724117,0.128624,-0.172122,-0.117245,7.804000,26.249820

-16.886538,1.644315,65.878067,18.774117,-0.051505,-0.302955,-0.142292,7.800000,26.249820

-2.315238,11.272293,59.143272,18.771175,-0.068292,-0.317611,-0.110583,7.800000,26.249820

-4.499496,23.774294,84.501740,18.747646,0.019907,-0.147341,-0.064752,7.804000,26.249820

-11.895317,9.241317,78.734528,18.727058,0.079328,-0.266450,-0.254473,7.800000,26.249820

-11.234291,32.080223,38.316181,18.732941,0.138750,-0.132419,-0.513475,7.796000,26.249820

0.395924,11.655497,93.420792,18.727058,0.174722,-0.253659,-0.574494,7.804000,26.249820

19.948864,27.989529,55.531582,18.721176,0.181916,-0.317078,-0.473505,7.796000,26.249820

16.318014,38.077351,50.856503,18.706469,0.018042,-0.061007,-0.254473,7.800000,26.249820

-7.766303,26.466297,61.413750,18.697645,-0.151961,-0.158532,-0.342939,7.800000,26.249820

-8.858432,24.301199,71.827293,18.735882,0.102777,-0.242202,-0.368253,7.804000,26.249820

10.340045,47.513729,64.699715,18.694704,0.185647,-0.306686,-0.505481,7.808000,26.249820

33.897457,25.901072,77.163399,18.706469,-0.250819,-0.184379,-0.409554,7.804000,26.249820

-6.635853,8.580292,70.543564,18.679998,-0.272669,0.017599,-0.324286,7.800000,26.714275

11.729156,14.989364,55.723183,18.685881,0.278376,-0.043421,-0.277922,7.804000,26.714275

-3.024164,-4.486935,65.897224,18.674116,0.212826,-0.153470,-0.217701,7.808000,26.714275

-13.341908,15.324666,52.178555,18.674116,0.228014,-0.143610,-0.200115,7.808000,26.714275

-1.903295,38.403072,49.314110,18.688822,0.314881,-0.112701,0.040501,7.808000,26.714275

4.965621,10.323866,48.442326,18.682940,0.140082,-0.229145,0.415414,7.804000,26.714275

-13.705952,12.757206,98.507812,18.671175,0.046554,-0.031963,0.590480,7.808000,26.714275

-25.154144,41.727360,64.345253,18.677057,0.122495,0.046377,0.576890,7.804000,26.714275

-13.629311,55.369392,64.105751,18.674116,-0.085612,0.066895,0.444725,7.804000,26.714275

-19.789301,29.694782,60.216240,18.674116,-0.010203,0.055970,0.326682,7.812000,26.714275

-24.119495,36.276295,63.301025,18.665293,-0.063762,-0.118563,0.080470,7.816000,26.714275

-25.901390,17.777166,83.840714,18.677057,-0.217777,-0.056477,-0.127104,7.816000,26.714275

-1.060248,8.312049,65.533180,18.665293,-0.166883,-0.280572,-0.159612,7.816000,26.714275

1.545533,20.469168,66.797752,18.668234,0.030033,-0.112967,-0.220899,7.808000,26.714275

25.888512,26.782438,66.951035,18.662352,0.077730,-0.199568,-0.142825,7.812000,27.845301

-8.599770,22.270222,75.285706,18.668234,0.135552,0.082616,-0.273925,7.808000,27.845301

-12.508442,32.492165,46.612530,18.650587,0.122762,-0.027966,-0.465511,7.812000,1659.001122

-9.423656,34.906345,63.914150,18.659410,0.237341,-0.222217,-0.597677,7.808000,1687.427302

17.505943,36.879841,82.547401,18.659410,0.065739,-0.297093,-0.412752,7.812000,983.486048

5.617067,61.136600,56.374630,18.632940,0.189644,-0.091917,-0.157481,7.816000,2300.122491

-16.991917,39.715546,64.862579,18.624117,0.023105,-0.098845,-0.066883,7.820000,2353.133234

-4.576137,46.277897,70.093300,18.647646,0.074266,-0.034094,-0.006396,7.824000,1791.258891

24.585621,43.940357,71.980576,18.638823,0.039093,-0.043687,-0.002133,7.820000,295.707641

9.688600,14.874403,59.354034,18.621176,-0.098136,-0.029298,0.099389,7.820000,2346.770233

1.152750,2.132899,79.318916,18.629999,0.026036,0.055171,0.023447,7.816000,289.035426

4.467457,32.769989,60.695244,18.609411,-0.079750,0.077020,-0.073279,7.812000,1675.010752

-22.404661,29.474442,89.090599,18.615294,0.183782,0.129780,-0.288314,7.816000,1675.010752

15.542027,16.934118,53.309002,18.627058,0.140615,-0.059408,-0.120442,7.816000,154.206572

0.654586,16.282673,68.340149,18.600588,-0.091741,0.044512,0.049028,7.816000,358.937065

-12.125238,21.503817,71.051308,18.603529,0.138483,0.182540,0.234752,7.820000,358.937065

-18.821712,34.360279,59.277393,18.594706,0.054814,0.031189,0.215833,7.824000,358.937065

-32.032642,12.805106,69.135292,18.594706,0.055347,0.034919,0.119640,7.824000,358.937065

-22.184320,10.333446,64.757195,18.585880,0.076664,-0.146808,-0.091132,7.828000,358.937065

-22.797445,18.677692,66.931877,18.579998,0.206431,-0.153470,-0.198516,7.824000,358.937065

1.210231,10.228065,80.238602,18.574116,0.051616,-0.252594,-0.122574,7.828000,358.937065

9.726920,13.494871,74.088196,18.582939,-0.066160,-0.196104,-0.108718,7.820000,358.937065

1.047369,24.626921,51.201385,18.568233,-0.035783,-0.035160,-0.051695,7.820000,358.937065

8.625211,26.303434,92.568161,18.577057,0.228014,0.030656,-0.150553,7.820000,358.937065

-8.465649,18.409451,66.998932,18.556469,0.190443,-0.143610,-0.373848,7.820000,358.937065

-7.680082,12.785946,57.016495,18.565292,0.080661,-0.228878,-0.546249,7.824000,37.173734

-4.911439,36.209236,53.826328,18.568233,0.051883,-0.142811,-0.508412,7.820000,231.114815

8.194107,46.038395,69.825058,18.582939,0.070269,-0.141212,-0.237686,7.824000,231.114815

-3.225345,54.210201,67.171379,18.562351,0.180851,-0.133485,-0.176133,7.828000,231.114815

-2.104476,34.820126,67.918625,18.547646,0.211227,-0.119629,-0.201980,7.832000,231.114815

18.770514,29.062498,55.100479,18.550587,0.003653,-0.072998,-0.225962,7.832000,231.114815

12.323121,3.167547,76.550270,18.529999,-0.096004,-0.187843,-0.096727,7.828000,231.114815

-1.385971,13.293690,69.777161,18.547646,0.046287,-0.017574,-0.053827,7.828000,231.114815

-7.392680,10.161004,84.904099,18.535881,-0.005407,-0.092183,-0.023450,7.828000,231.114815

-21.916077,21.417595,64.776352,18.535881,0.040158,-0.103108,0.030642,7.824000,231.114815

-6.319711,14.759442,54.257431,18.518234,-0.008604,-0.275243,0.151616,7.820000,231.114815

9.219175,26.609997,62.639999,18.527058,0.031099,-0.046085,0.583019,7.824000,231.114815

-40.635551,18.438190,66.807335,18.512352,0.105175,0.078086,0.723178,7.824000,231.114815

-36.832260,29.426540,60.005478,18.532940,0.172590,-0.053280,0.622189,7.828000,231.114815

-16.867376,46.124619,74.452232,18.497646,0.101178,-0.036493,0.483095,7.820000,231.114815

-10.851089,45.971336,71.271652,18.497646,0.053748,-0.104441,0.334409,7.828000,29.654061

-5.352123,22.892927,68.905373,18.503529,-0.002742,-0.082591,0.259800,7.828000,29.654061

-3.972592,13.533192,76.761032,18.488823,0.035362,-0.216621,0.120706,7.824000,29.654061

-3.043324,12.680565,62.333439,18.471176,-0.030454,-0.256591,0.033573,7.824000,29.654061

18.818415,23.218651,53.519764,18.471176,-0.047508,-0.275776,-0.075677,7.824000,29.654061

25.380768,32.875370,79.242271,18.438822,-0.030454,-0.026367,-0.016522,7.820000,29.654061

-8.638090,25.067604,63.923729,18.450586,0.080128,-0.242468,-0.287514,7.820000,29.654061

-0.954867,19.999744,62.113094,18.435881,-0.061630,-0.277641,-0.126837,7.820000,29.654061

3.183727,39.887985,34.493729,18.432940,-0.178074,-0.233675,0.079937,7.820000,29.654061

0.319283,40.587330,69.020332,18.418234,0.029766,-0.205963,0.186789,7.820000,29.654061

-4.595297,27.500944,60.494061,18.418234,-0.092273,-0.239537,0.227824,7.820000,29.654061

5.166803,18.083729,76.923897,18.418234,-0.040846,-0.250462,0.335475,7.824000,29.654061

2.541862,24.876003,66.721115,18.418234,-0.108261,-0.039424,0.508942,7.820000,28.738082

-8.111186,22.385183,65.226624,18.409410,-0.060831,-0.061007,0.547313,7.820000,28.738082

-5.572464,17.892126,67.602478,18.391764,-0.159688,-0.150805,0.568097,7.816000,28.738082

-12.393480,11.521376,83.189270,18.388823,-0.184469,-0.067935,0.609398,7.816000,28.738082

-2.717601,23.486893,60.388680,18.382940,-0.060298,-0.128156,0.620323,7.820000,28.738082

9.200015,9.691581,75.659325,18.388823,-0.001143,-0.053013,0.765812,7.820000,28.738082

-3.503168,24.282038,64.958382,18.385881,0.148875,0.118056,0.867601,7.824000,28.738082

-11.540854,19.137537,68.138962,18.379999,0.072667,0.091409,0.716250,7.828000,28.738082

-15.602807,17.930447,76.483215,18.368235,0.079062,0.054371,0.583818,7.828000,28.738082

-20.095863,30.959352,71.578209,18.359411,0.073999,0.171348,0.461245,7.824000,28.738082

2.675983,15.497108,87.069199,18.388823,-0.071756,0.034919,0.466574,7.828000,28.738082

-13.543090,13.408650,71.865616,18.365294,0.075864,0.079685,0.393564,7.832000,28.738082

0.817447,29.062498,80.813408,18.359411,0.045221,0.143103,0.418345,7.828000,28.738082

1.478473,22.825867,74.605515,18.368235,0.038027,0.095406,0.389567,7.828000,28.902339

-7.009476,15.995273,85.019066,18.353529,0.015910,0.139373,0.376777,7.824000,28.902339

0.252223,0.906649,65.408646,18.341763,-0.042978,0.044246,0.291775,7.824000,28.902339

-2.832562,12.421903,54.525673,18.335880,-0.044044,0.014402,0.269126,7.828000,28.902339

1.717975,16.637136,61.931072,18.353529,0.033497,-0.116964,0.290709,7.828000,28.902339

0.137262,17.039499,66.098412,18.344706,0.007916,0.138040,0.429536,7.824000,28.902339

17.084421,27.318924,69.566399,18.350588,0.181384,0.070892,0.482562,7.824000,28.902339

-1.232689,26.217215,76.837677,18.359411,0.121429,0.058368,0.464709,7.824000,28.902339

14.354097,27.453045,78.245949,18.341763,0.020973,0.104999,0.519068,7.820000,28.902339

4.668639,20.440428,80.957108,18.359411,-0.024592,0.184405,0.475901,7.820000,28.902339

3.816012,21.925339,73.043968,18.347647,0.085191,0.097538,0.476967,7.820000,28.902339

15.858171,40.520271,67.880302,18.350588,0.064406,0.260347,0.531591,7.816000,28.902339

-13.610150,30.681530,78.035187,18.377058,-0.038448,0.272071,0.521999,7.820000,28.902339

-1.405131,12.718885,74.595940,18.347647,0.066005,0.185471,0.475101,7.820000,28.902339

8.730592,19.147118,56.729092,18.338821,0.113702,0.203857,0.433267,7.820000,28.503126

15.302526,17.336481,61.164669,18.341763,0.056946,0.284062,0.468173,7.820000,28.503126

3.317848,15.870730,64.881737,18.338821,0.016177,0.268873,0.486293,7.816000,28.503126

4.467457,16.924538,61.270050,18.329998,0.072400,0.255017,0.430602,7.820000,28.503126

6.134391,20.574549,68.071907,18.335880,-0.065894,0.316570,0.354127,7.820000,28.503126

2.273619,24.147917,79.414719,18.332939,-0.097336,0.226772,0.346400,7.820000,28.503126

-6.396351,16.608397,72.143440,18.335880,0.014844,0.312840,0.177196,7.820000,28.503126

0.395924,21.264315,69.231094,18.327057,-0.056035,0.190800,0.162008,7.820000,28.503126

-1.338070,11.119012,78.868652,18.312351,-0.036316,0.254751,0.220363,7.816000,28.503126

-3.943851,17.010759,57.457176,18.324116,0.100112,0.183605,0.159876,7.812000,28.503126

18.272350,26.245955,75.324020,18.294704,-0.049639,0.212383,0.167337,7.808000,28.503126

-11.885736,11.847098,94.311737,18.327057,-0.054702,0.261679,-0.009328,7.808000,28.503126

-4.873119,27.424305,64.833839,18.321175,0.046554,0.222509,-0.143891,7.808000,28.503126

10.158023,4.978182,56.202187,18.297646,-0.016332,0.053572,-0.201447,7.808000,28.503126

-0.284262,10.889091,62.534618,18.303528,-0.060564,0.123651,-0.157481,7.804000,28.503126

-7.450160,19.721922,61.643673,18.312351,-0.008071,0.030656,-0.146822,7.800000,28.503126

7.264840,24.214977,62.314278,18.327057,0.051083,-0.009580,0.040501,7.796000,28.503126

4.237535,21.570877,56.202187,18.312351,0.034296,-0.000787,0.127101,7.796000,28.503126

-2.583480,16.646717,88.065529,18.306469,0.022305,-0.039424,0.314158,7.800000,28.503126

0.980309,14.845662,74.270218,18.321175,-0.126914,-0.019705,0.396228,7.800000,28.503126

-18.438509,18.141209,68.838310,18.321175,-0.180739,-0.006915,0.474835,7.800000,28.503126

-15.794409,7.057059,72.996063,18.315292,-0.154626,-0.027433,0.482829,7.800000,28.503126

-6.051468,10.371766,66.213371,18.321175,-0.034718,-0.084722,0.450320,7.800000,28.503126

-9.011713,9.078456,57.083553,18.309410,0.036428,-0.015975,0.393830,7.808000,28.503126

2.608922,15.525848,48.662666,18.306469,0.010048,0.051174,0.425539,7.804000,28.503126

2.139498,22.615105,90.623405,18.297646,0.079328,0.077820,0.323751,7.800000,28.503126

-1.194369,19.788982,112.667168,18.279999,0.311950,0.172947,0.235019,7.808000,28.503126

5.281764,50.397331,45.654522,18.291763,0.316746,0.204123,0.283248,7.812000,28.503126

-3.464847,15.123485,65.255363,18.288822,0.042823,0.117523,0.193717,7.808000,28.503126

10.071802,13.561933,78.945290,18.309410,0.028168,-0.009313,0.236084,7.800000,13.252174

10.608287,11.396834,60.062958,18.291763,0.026835,0.120454,0.315757,7.796000,13.252174

8.376128,-0.549523,58.587627,18.268234,0.050817,-0.091650,0.345334,7.800000,13.252174

-9.404496,4.365057,58.673847,18.274117,0.012979,0.208120,0.358124,7.796000,13.252174

-15.104643,21.637938,77.048439,18.279999,-0.154626,0.120720,0.373846,7.796000,13.252174

0.635426,35.174587,79.165634,18.279999,0.039892,0.082083,0.335475,7.800000,13.252174

-8.868011,38.585094,68.838310,18.259411,0.077197,0.223841,0.358657,7.796000,13.252174

-4.940179,25.230467,76.607750,18.262352,-0.009670,0.055703,0.361055,7.788000,13.252174

12.763804,30.959352,77.766945,18.262352,0.101445,0.078619,0.446057,7.788000,13.252174

-11.952797,20.555387,92.501106,18.262352,-0.123450,0.123918,0.381839,7.784000,13.252174

-12.268940,31.170115,79.922462,18.250587,-0.146365,0.183073,0.373046,7.780000,13.252174

12.629683,7.785145,62.697479,18.274117,-0.324895,0.070092,0.313891,7.780000,13.252174

-12.824584,14.874403,60.091698,18.268234,0.034563,0.216913,0.237950,7.792000,13.252174

-19.798880,35.002148,59.995899,18.244705,0.111037,0.062898,0.081803,7.788000,13.252174

-0.887806,20.277565,72.593704,18.259411,-0.033119,-0.055145,0.114045,7.792000,13.252174

-2.315238,7.660604,67.870720,18.250587,0.119831,-0.008780,0.175864,7.788000,13.252174

-6.041888,9.835281,60.082119,18.256470,-0.010469,-0.085788,0.256069,7.792000,24.663269

-3.943851,15.267186,76.885574,18.238823,0.011114,-0.059941,0.386902,7.784000,24.663269

-7.613021,12.795526,73.590027,18.244705,0.047086,-0.097246,0.577423,7.780000,24.663269

-2.631381,18.304070,71.367455,18.241764,-0.003808,-0.115898,1.031209,7.780000,24.663269

-3.196605,27.721287,82.432442,18.238823,0.045754,0.015734,1.237450,7.776000,24.663269

-7.641761,25.278366,72.402100,18.241764,0.007650,0.037850,1.200146,7.776000,24.663269

8.127047,19.127956,78.514191,18.235882,0.063874,0.164154,1.232121,7.776000,24.663269

4.045934,26.590837,72.938583,18.232941,0.166995,0.345082,1.180428,7.776000,24.663269

-5.428763,31.294655,62.304695,18.235882,0.236541,0.394910,1.008026,7.788000,24.663269

12.715904,36.218815,73.206825,18.235882,0.302890,0.370129,0.862538,7.788000,24.663269

23.206091,42.771591,69.336472,18.206469,0.205365,0.502561,0.586216,7.788000,24.663269

8.366549,26.006453,73.072708,18.227058,0.027901,0.518549,0.409019,7.784000,24.663269

11.719576,19.108797,82.604881,18.232941,-0.024858,0.559851,0.285380,7.788000,24.663269

3.289108,20.603289,67.765343,18.244705,-0.003808,0.400239,0.116176,7.784000,24.663269

16.490456,16.330574,64.527275,18.268234,0.041491,0.454864,0.113512,7.776000,24.663269

4.055514,18.371130,62.093937,18.250587,0.046554,0.486307,0.225426,7.776000,24.663269

-1.826654,13.169148,68.206024,18.271175,-0.106662,0.428484,0.269659,7.772000,24.663269

-5.409603,22.509724,75.917992,18.268234,-0.040846,0.531339,0.262198,7.772000,24.663269

-1.654213,18.495672,62.841183,18.271175,-0.028855,0.456729,0.187588,7.768000,24.663269

-11.627074,25.642410,68.867050,18.279999,-0.011535,0.415961,0.059953,7.772000,24.663269

-2.526000,24.876003,62.256798,18.294704,-0.008604,0.333357,-0.112182,7.772000,24.663269

2.503541,24.952644,72.114700,18.288822,-0.058699,0.343216,-0.142292,7.772000,24.663269

-7.555541,20.632029,75.084518,18.274117,-0.141569,0.377857,-0.268596,7.772000,24.663269

-12.929965,13.533192,61.854435,18.282940,-0.169548,0.198794,-0.355729,7.780000,24.663269

-3.158285,13.887654,69.853798,18.282940,-0.120518,0.108197,-0.466044,7.772000,24.663269

2.733463,11.406415,73.733727,18.297646,-0.117321,0.058102,-0.600341,7.772000,24.663269

7.877965,8.244988,65.715202,18.285881,-0.148763,0.062898,-0.681612,7.772000,24.663269

-3.455267,15.736609,69.116135,18.306469,-0.111459,0.116990,-0.770344,7.772000,24.663269

-8.235726,17.499344,73.704987,18.294704,-0.109860,-0.040223,-0.880127,7.768000,24.663269

-6.760394,22.413923,64.709297,18.288822,-0.030987,-0.113500,-0.954736,7.768000,24.663269

4.180055,22.500145,61.634090,18.300587,0.044688,-0.224349,-0.823370,7.776000,24.663269

-0.456703,16.531755,67.861145,18.312351,0.043622,-0.214490,-0.592880,7.772000,24.663269

-16.388372,17.384382,78.475868,18.318233,0.066005,-0.209960,-0.322687,7.772000,24.663269

-23.745872,19.060896,60.867683,18.321175,0.138483,-0.347188,-0.047165,7.772000,11.776682

2.177819,30.892292,64.019531,18.338821,0.191243,-0.443381,0.208372,7.768000,11.776682

4.026773,21.542137,63.712967,18.324116,0.098247,-0.360511,0.547046,7.768000,11.776682

-3.311566,22.739647,65.102081,18.335880,0.038027,-0.308817,0.985643,7.772000,11.776682

-11.598334,18.409451,68.359306,18.341763,0.010581,-0.186777,1.249441,7.776000,11.776682

-12.374321,20.258406,68.780830,18.344706,-0.118387,-0.148407,1.162308,7.780000,11.776682

-12.652143,15.851571,77.297516,18.347647,-0.189799,-0.092716,0.932884,7.776000,11.776682

-1.232689,19.233337,72.028473,18.332939,-0.173278,-0.007182,0.841487,7.780000,11.776682

0.482145,19.884783,73.034386,18.344706,-0.122650,0.084215,0.834826,7.776000,11.776682

-7.613021,14.385818,71.319550,18.332939,-0.093872,0.156426,0.865202,7.776000,11.776682

1.794616,25.240046,67.449196,18.353529,-0.000344,0.342417,0.752222,7.780000,11.776682

0.970729,17.001179,74.442657,18.332939,-0.082148,0.335223,0.538786,7.780000,11.776682

7.858805,26.849499,67.171379,18.341763,-0.047508,0.382120,0.236084,7.780000,11.776682

2.551442,30.116306,59.583954,18.347647,-0.056834,0.387982,-0.017055,7.784000,11.776682

-3.091224,18.179529,62.113094,18.344706,-0.113590,0.435412,-0.271527,7.780000,11.776682

-0.657885,17.077820,66.203789,18.327057,-0.036849,0.192665,-0.448991,7.784000,11.776682

-2.420619,22.605524,66.922295,18.335880,-0.091741,0.223042,-0.538788,7.776000,24.186343

-6.856195,30.413288,65.753525,18.318233,-0.001943,0.196662,-0.510277,7.780000,24.186343

-4.585717,15.037264,68.962852,18.324116,-0.011535,0.055437,-0.440997,7.784000,24.186343

-0.868646,19.080055,62.927402,18.312351,-0.010469,0.034386,-0.390635,7.788000,24.186343

11.460914,21.925339,77.556183,18.291763,-0.027257,-0.083390,-0.258736,7.784000,24.186343

1.104850,28.420631,74.998299,18.303528,0.058811,0.034919,-0.227294,7.784000,24.186343

-3.761830,34.647682,72.555382,18.303528,0.056146,0.005076,-0.241949,7.776000,24.186343

-4.796478,32.942429,63.626747,18.294704,0.024171,-0.024502,-0.209707,7.784000,24.186343

-9.883500,22.260643,81.761833,18.256470,0.031365,-0.027966,-0.076476,7.784000,24.186343

-3.924691,29.512762,70.419022,18.271175,0.017243,-0.036759,0.083934,7.780000,24.186343

-0.811166,29.072077,70.965088,18.268234,-0.001943,-0.018107,0.211037,7.780000,24.186343

-3.397787,27.510525,82.671944,18.274117,0.021772,-0.101243,0.088464,7.784000,24.186343

7.101979,29.608562,60.637764,18.265293,0.013512,-0.048217,0.069812,7.776000,24.186343

12.696744,20.679930,58.740910,18.265293,-0.051771,-0.027166,0.138026,7.784000,24.186343

6.690035,21.475075,66.069664,18.250587,0.026569,0.083948,0.078339,7.780000,24.186343

0.970729,13.418231,66.376228,18.256470,-0.105064,-0.017840,0.026378,7.784000,24.600263

2.426901,21.082293,60.110859,18.253529,-0.142368,0.009605,-0.005864,7.780000,24.600263

-5.639525,18.265749,69.346054,18.247646,-0.005140,-0.011179,0.038902,7.784000,24.600263

4.017194,24.214977,70.668106,18.230000,0.016976,-0.021304,0.137760,7.780000,24.600263

-0.380062,29.234940,65.763107,18.224117,-0.013401,0.037850,0.284314,7.784000,24.600263

-5.946088,18.294489,77.240036,18.232941,0.039359,0.180141,0.256602,7.784000,24.600263

5.185963,26.198053,70.955505,18.209410,0.181916,0.131379,0.276587,7.784000,24.600263

5.856569,24.492800,65.188301,18.206469,0.048685,0.192932,0.288045,7.784000,24.600263

-9.164994,20.028484,73.101448,18.230000,-0.134641,0.183872,0.203310,7.784000,24.600263

-3.388207,15.401307,56.451271,18.206469,0.059077,0.017599,-0.019720,7.780000,24.600263

-1.730853,18.639372,60.628181,18.194704,-0.017930,0.020797,-0.177465,7.784000,24.600263

-2.497260,23.371931,67.880302,18.209410,-0.013401,-0.031963,-0.197716,7.784000,24.600263

-7.727982,30.786911,74.672577,18.215292,0.092385,0.063164,-0.243814,7.784000,24.600263

-5.907767,35.768551,69.470596,18.200586,-0.033119,0.006141,-0.123107,7.788000,24.600263

-5.907767,22.634266,80.047005,18.188822,-0.046442,0.059967,-0.119110,7.788000,24.600263

-10.170902,30.451609,73.034386,18.218235,-0.004341,0.025327,-0.132167,7.780000,24.600263

9.123375,24.646082,65.571503,18.203527,0.062541,-0.093249,-0.088200,7.780000,24.600263

-9.931400,15.362987,85.517227,18.197645,0.016710,-0.057277,-0.099658,7.780000,24.600263

-11.627074,21.360115,61.643673,18.185881,0.075598,-0.116431,-0.088733,7.784000,24.600263

-4.499496,27.817087,66.539093,18.179998,-0.001410,-0.219286,-0.185726,7.784000,24.600263

-2.736762,25.192146,72.143440,18.182940,0.140615,-0.118297,-0.181729,7.784000,24.600263

4.275856,27.692547,70.093300,18.171175,0.212027,-0.172921,-0.106853,7.780000,24.600263

6.977437,22.548044,65.609825,18.179998,0.112370,-0.173987,0.115110,7.784000,24.600263

-0.667465,22.615105,63.463886,18.171175,0.018575,-0.101509,0.316023,7.784000,24.600263

-12.163559,26.265114,83.457512,18.162352,-0.023260,-0.161996,0.427138,7.784000,24.600263

-10.381664,27.673386,70.265739,18.174116,-0.060298,-0.151604,0.492688,7.784000,24.600263

-1.117728,26.667479,60.781464,18.159410,-0.046442,-0.100177,0.518002,7.784000,24.600263

-8.714730,11.061532,72.976906,18.165293,-0.000610,0.032255,0.624320,7.788000,24.600263

-12.498861,12.680565,68.627548,18.156469,0.036961,-0.069800,0.563034,7.792000,24.600263

-0.341742,21.954079,65.686462,18.153528,0.020973,0.067428,0.714651,7.780000,24.600263

2.398160,20.430847,66.625313,18.138823,0.074266,0.132978,0.814308,7.788000,24.600263

-3.436107,19.884783,66.510353,18.147646,0.027901,0.240095,0.762614,7.788000,12.620198

-0.811166,22.241482,73.264305,18.135881,-0.053370,0.266475,0.615527,7.792000,12.620198

-1.960775,30.432449,79.673378,18.135881,-0.028855,0.254218,0.438596,7.788000,12.620198

-1.108148,32.769989,70.945930,18.135881,0.038027,0.312307,0.289910,7.792000,12.620198

4.754859,29.072077,71.137527,18.138823,-0.050439,0.313639,0.130299,7.784000,12.620198

-6.750814,20.746990,75.199486,18.138823,-0.092540,0.307244,0.059686,7.788000,12.620198

-14.989682,17.528084,66.567833,18.132940,-0.086411,0.263544,-0.026648,7.792000,12.620198

-14.520258,23.898836,55.464520,18.129999,-0.065894,0.160157,-0.129769,7.784000,12.620198

-1.338070,32.108963,87.931404,18.129999,0.015644,0.221710,-0.195585,7.792000,12.620198

10.780728,18.284910,65.542763,18.109411,-0.069891,0.168151,-0.179863,7.784000,12.620198

4.841080,22.461824,65.839745,18.100588,-0.074953,0.211051,-0.286981,7.784000,12.620198

-3.819310,26.073513,78.657890,18.106470,-0.054436,0.162555,-0.476436,7.780000,12.620198

7.810905,33.948338,77.651985,18.100588,-0.016065,0.084215,-0.585153,7.784000,12.620198

-1.060248,28.219450,68.771248,18.100588,-0.034984,0.050108,-0.517205,7.784000,12.620198

-4.547396,22.720486,80.248184,18.118235,-0.014466,0.019731,-0.516672,7.784000,12.620198

-3.752250,20.430847,58.463085,18.094706,0.053215,-0.014376,-0.404225,7.784000,25.677665

-5.697006,13.207469,64.920059,18.082939,-0.017397,-0.146009,-0.329882,7.788000,25.677665

-8.168666,25.316687,70.304062,18.091763,0.044955,-0.070600,-0.200914,7.788000,25.677665

-3.129545,30.921032,71.808136,18.082939,0.073200,-0.127889,-0.050629,7.792000,25.677665

-0.552504,22.136101,64.057846,18.091763,0.029233,0.012004,0.130299,7.792000,25.677665

-5.323382,24.377840,64.728455,18.079998,0.021240,-0.004784,0.168936,7.792000,25.677665

-0.696205,21.158934,67.956940,18.082939,0.018841,-0.028232,0.256069,7.788000,25.677665

-17.902025,22.040300,79.510521,18.074116,-0.000877,0.057302,0.308829,7.792000,25.677665

-14.012514,26.619577,81.991760,18.082939,0.020174,-0.058875,0.344801,7.788000,25.677665

-1.520092,21.819958,71.616531,18.044704,0.027102,0.068494,0.491622,7.788000,25.677665

-7.201078,13.197889,61.040127,18.059410,-0.049906,0.058102,0.557705,7.792000,25.677665

-4.528236,18.275330,75.525208,18.077057,-0.015532,0.140971,0.382106,7.788000,25.677665

3.222047,18.169949,69.259834,18.053528,-0.049906,0.129780,0.232354,7.784000,25.677665

0.510885,27.864988,58.884609,18.053528,0.127292,0.159357,0.035971,7.788000,25.677665

-12.345580,23.237810,62.323856,18.056469,0.008982,0.075422,-0.117245,7.788000,25.936176

-5.112621,26.657898,65.820587,18.038822,0.040691,0.035452,-0.203845,7.792000,25.936176

2.168238,30.394129,70.466927,18.038822,-0.025924,0.065296,-0.161211,7.796000,25.936176

-15.593226,12.757206,63.914150,18.041763,-0.053903,-0.015975,-0.160678,7.792000,25.936176

-0.542924,15.008524,65.657722,18.047646,-0.048574,-0.078860,-0.126571,7.792000,25.936176

1.957477,13.437391,78.677048,18.056469,-0.045110,-0.015442,-0.195851,7.788000,25.936176

3.011285,24.665241,72.402100,18.038822,-0.030721,-0.005583,-0.174001,7.792000,25.936176

-6.942416,18.294489,70.993828,18.044704,-0.066427,-0.009846,-0.152151,7.792000,25.936176

-5.112621,9.950243,59.507313,18.024117,-0.071489,-0.076462,-0.135897,7.788000,25.936176

3.471129,26.360916,70.083717,18.035881,-0.007805,-0.067935,-0.089000,7.788000,25.936176

-2.401459,19.386620,69.844215,18.018234,-0.021394,-0.037825,-0.089000,7.792000,25.936176

8.395288,29.129559,58.031982,18.009411,-0.101866,-0.184646,-0.038372,7.788000,25.936176

3.030446,36.563698,66.232529,18.021175,-0.003541,0.008273,-0.080473,7.792000,25.936176

11.029810,30.365389,67.449196,18.021175,0.049485,-0.021837,-0.061821,7.796000,25.936176

4.687799,22.806707,68.503006,18.035881,0.044688,0.054638,-0.068482,7.796000,25.936176

3.787271,21.676258,71.750656,18.027058,0.007916,0.037584,-0.059422,7.792000,25.936176

1.162330,27.251863,79.500938,18.032940,-0.015799,0.057036,-0.049030,7.788000,26.155874

-6.348451,27.309343,77.489120,18.021175,0.048419,0.049042,0.042366,7.796000,26.155874

-1.548832,22.308542,72.699081,18.038822,0.014844,0.050108,0.072476,7.796000,26.155874

7.360641,14.491199,63.473465,18.041763,0.043356,0.012270,0.127634,7.792000,26.155874

2.743043,17.738846,66.654053,18.029999,0.090253,0.114059,0.164140,7.796000,26.155874

7.293581,24.684402,66.088829,18.041763,-0.037915,0.136175,0.197447,7.800000,26.155874

-9.969721,26.715378,78.734528,18.044704,-0.048307,0.235299,0.166005,7.796000,26.155874

-16.694935,22.538464,85.469322,18.027058,-0.078684,0.236099,0.044231,7.792000,26.155874

-13.552670,29.848064,74.825859,18.047646,-0.050705,0.154028,-0.111916,7.796000,26.155874

-19.913841,23.534792,67.564163,18.041763,-0.007005,0.114059,-0.186259,7.800000,26.155874

-5.332963,23.965897,65.082916,18.027058,-0.031786,0.051973,-0.209174,7.796000,26.155874

-8.484809,26.255535,79.338074,18.032940,-0.066160,0.102068,-0.207043,7.796000,26.155874

11.700416,18.763914,64.077011,18.024117,0.029233,-0.042355,-0.207576,7.792000,26.155874

0.980309,15.018104,68.445526,18.029999,0.049751,-0.090052,-0.253141,7.796000,26.155874

7.274420,18.064568,66.337914,18.038822,0.033763,-0.083656,-0.218234,7.792000,26.584062

0.759967,17.595144,72.009315,18.041763,0.075065,-0.002385,-0.351199,7.796000,26.584062

-4.547396,26.303434,68.177284,18.038822,0.123828,-0.055678,-0.424476,7.800000,26.584062

-7.316039,17.604725,63.320187,18.053528,0.006584,-0.144410,-0.475104,7.796000,26.584062

-0.868646,11.320194,68.694611,18.027058,0.072134,-0.291231,-0.437266,7.796000,26.584062

10.464585,30.786911,75.889244,18.035881,0.180851,-0.199035,-0.318957,7.792000,26.584062

-1.788334,27.405144,66.558250,18.029999,0.119298,-0.122027,-0.070880,7.800000,26.584062

3.298688,37.416325,62.151417,18.053528,0.111570,-0.161996,-0.017588,7.796000,26.584062

-0.715365,36.487057,71.788971,18.062351,0.174988,-0.103641,0.033573,7.796000,26.584062

1.967057,27.453045,57.514656,18.056469,0.035629,-0.140413,0.097257,7.796000,26.584062

-11.646235,17.872967,67.276756,18.056469,0.018308,-0.199568,0.146553,7.792000,26.584062

-1.146469,23.506052,75.074944,18.059410,0.072933,-0.174254,0.179594,7.796000,26.584062

-1.414711,17.853806,69.441856,18.065292,0.010848,-0.064738,0.309628,7.792000,26.584062

-8.647670,20.746990,75.343185,18.077057,-0.020595,-0.053813,0.362388,7.796000,26.584062

3.691471,24.128757,62.362179,18.082939,-0.007005,-0.050082,0.427138,7.788000,26.584062

0.932408,13.954716,64.517693,18.056469,-0.045376,-0.034094,0.444991,7.788000,26.327709

-3.493588,16.062332,69.767578,18.065292,-0.096537,-0.004251,0.449787,7.792000,26.327709

-4.662357,26.111834,71.137527,18.068233,0.009515,0.041847,0.393830,7.792000,26.327709

2.925065,22.356443,59.660595,18.059410,-0.016598,0.095939,0.310161,7.792000,26.327709

-3.848051,37.387585,79.845818,18.074116,0.029500,0.131112,0.158011,7.796000,26.327709

-2.890043,27.826668,75.755127,18.100588,0.055347,0.134043,0.077006,7.788000,26.327709

-0.887806,17.489763,75.707230,18.091763,-0.075486,0.121253,0.067147,7.796000,26.327709

-4.806058,6.271492,66.577415,18.097647,-0.088543,0.087412,-0.039438,7.792000,26.327709

8.318648,13.916395,57.141033,18.106470,-0.070690,0.026393,-0.086602,7.796000,26.327709

-0.370482,14.357079,81.934280,18.094706,-0.009937,0.155360,-0.200914,7.792000,26.327709

-6.607113,14.711541,66.596573,18.100588,-0.045909,0.122319,-0.260868,7.792000,26.327709

2.331100,10.055623,66.539093,18.121176,-0.011269,0.084481,-0.422877,7.792000,26.327709

7.446862,20.861950,68.550911,18.121176,0.031099,0.107131,-0.346136,7.796000,26.327709

-9.883500,18.074148,70.026237,18.118235,0.029233,0.150564,-0.238485,7.792000,26.327709

-10.228383,22.040300,74.471397,18.109411,0.129956,0.048242,-0.217701,7.792000,26.327709

-7.948324,16.531755,64.536850,18.100588,0.097981,-0.033561,-0.114580,7.784000,25.917393

-7.641761,13.964295,68.062325,18.112352,0.062808,-0.054346,-0.046099,7.788000,25.917393

-2.717601,18.217850,66.040924,18.121176,0.066805,-0.062872,0.073809,7.792000,25.917393

2.608922,13.149989,54.908878,18.109411,-0.024592,-0.040490,0.187588,7.792000,25.917393

1.468893,23.381512,76.052109,18.103529,0.078263,-0.037558,0.229956,7.792000,25.917393

2.628082,30.480349,65.973869,18.103529,0.070269,0.068494,0.235285,7.792000,25.917393

-2.957103,27.031521,68.886208,18.091763,0.001255,0.133777,0.211037,7.788000,25.917393

-4.681518,35.816452,78.130989,18.115294,0.030033,0.096739,0.069545,7.788000,25.917393

1.804196,30.681530,76.828094,18.094706,-0.127979,0.104466,-0.109517,7.788000,25.917393

3.748951,16.953279,77.441223,18.100588,0.011380,0.071691,-0.394632,7.788000,25.917393

-1.223109,19.923103,63.655487,18.097647,-0.025125,0.103933,-0.382109,7.784000,25.917393

1.478473,14.922303,70.208260,18.106470,0.014578,0.010138,-0.415949,7.784000,25.917393

3.787271,22.758806,69.307732,18.112352,0.053482,-0.003185,-0.383441,7.784000,25.917393

-6.281390,12.383582,64.517693,18.112352,-0.024592,-0.079659,-0.290712,7.784000,25.917393

-10.956469,25.172985,78.217209,18.109411,0.055347,0.037850,-0.206510,7.780000,25.265263

-9.615258,29.963024,76.607750,18.109411,0.149142,-0.046085,-0.088733,7.784000,25.265263

-4.489916,23.199490,73.599609,18.121176,0.094250,-0.028232,0.077539,7.784000,25.265263

-16.426693,19.108797,61.164669,18.109411,0.128624,-0.111901,0.248875,7.784000,25.265263

-6.789135,18.122047,72.593704,18.118235,0.152872,-0.092716,0.381573,7.784000,25.265263

-23.104008,17.844227,76.713135,18.109411,-0.139437,-0.091650,0.419677,7.784000,25.265263

-18.016985,17.844227,70.668106,18.132940,-0.090142,-0.076195,0.373313,7.780000,25.265263

-10.841508,13.351171,68.081482,18.135881,-0.107728,-0.084189,0.335208,7.784000,25.265263

0.213903,13.418231,62.141834,18.124117,-0.105597,-0.123359,0.297371,7.780000,25.265263

-6.281390,4.096815,65.753525,18.115294,-0.080816,-0.015176,0.099656,7.780000,25.265263

2.101178,8.685673,72.871521,18.129999,0.011647,-0.116431,-0.046366,7.776000,25.265263

1.976637,21.388855,68.234764,18.141764,-0.052837,0.054904,-0.073811,7.780000,25.265263

1.842516,19.635700,58.443924,18.121176,-0.049906,0.012004,-0.063952,7.776000,25.265263

-8.427328,12.306942,82.853966,18.129999,-0.013401,0.035719,-0.140427,7.772000,25.265263

4.055514,22.548044,70.514824,18.135881,0.113702,-0.001852,-0.167873,7.768000,25.265263

5.990690,28.401472,62.333439,18.135881,0.050018,0.005076,-0.098859,7.772000,25.265263

3.710631,27.338083,83.879036,18.135881,0.056146,0.033587,-0.103922,7.776000,25.265263

6.977437,48.375935,78.274689,18.127058,0.092385,0.289658,-0.106320,7.776000,24.160505

-15.947690,24.368259,51.402569,18.127058,-0.051238,-0.070333,-0.105254,7.772000,24.160505

4.275856,26.715378,75.783867,18.138823,0.087855,0.028524,-0.215037,7.776000,24.160505

3.691471,28.152390,75.850929,18.138823,0.126759,0.152163,-0.156681,7.776000,24.160505

-6.520892,17.087400,62.343018,18.153528,0.067338,0.025060,-0.142292,7.772000,24.160505

-6.559213,21.139772,60.446163,18.138823,0.109439,-0.020771,-0.181729,7.776000,24.160505

2.848424,30.547409,79.002769,18.141764,0.125160,0.075155,-0.021052,7.772000,24.160505

-2.018256,35.232067,71.319550,18.138823,0.199769,0.101801,0.110048,7.772000,24.160505

-13.408969,12.556024,76.713135,18.129999,-0.172745,-0.036759,0.166005,7.776000,24.160505

-9.404496,12.364423,64.259033,18.153528,-0.088543,0.022662,0.111114,7.768000,24.160505

-1.864974,10.783710,70.160362,18.144705,0.026835,-0.133485,-0.035974,7.764000,24.160505

-0.792006,14.625320,67.688698,18.156469,-0.002209,0.008273,-0.116978,7.768000,24.160505

-0.265101,12.709305,64.939217,18.147646,-0.042179,-0.064738,-0.207309,7.768000,24.160505

-3.378627,28.957117,65.801422,18.144705,-0.062963,-0.024768,-0.182262,7.764000,24.160505

4.103414,27.261442,74.241478,18.138823,-0.149829,0.009605,-0.038372,7.764000,24.160505

-11.128910,23.553953,71.041725,18.141764,-0.097070,0.045578,-0.077542,7.768000,24.160505

-15.257924,30.087566,71.271652,18.132940,-0.033652,-0.096980,0.020516,7.772000,23.643439

-7.919584,31.265915,73.772049,18.127058,-0.008871,-0.012777,0.019983,7.764000,23.643439

-11.560014,17.317322,80.679283,18.144705,-0.079217,-0.056211,-0.023450,7.764000,23.643439

-5.620365,21.331375,66.481613,18.135881,-0.063229,-0.079926,-0.059955,7.768000,23.643439

-2.717601,11.559696,68.062325,18.124117,-0.006473,-0.095647,-0.108718,7.764000,23.643439

-10.046362,10.716649,67.477936,18.141764,-0.033652,-0.108704,-0.087135,7.760000,23.643439

-7.086117,4.920702,65.753525,18.153528,-0.085878,-0.210759,-0.018387,7.764000,23.643439

-0.916547,3.742352,65.025436,18.147646,-0.121584,-0.180382,0.021049,7.760000,23.643439

-8.599770,5.035663,70.725586,18.147646,-0.092007,-0.142811,0.137493,7.760000,23.643439

-9.816440,16.464695,57.265575,18.144705,-0.080016,-0.140146,0.164140,7.760000,23.643439

-7.248978,13.054188,78.360909,18.135881,-0.107195,-0.180915,0.146020,7.760000,23.643439

0.759967,25.996872,65.140404,18.156469,-0.110659,-0.131087,0.137760,7.760000,23.643439

6.316412,26.504616,70.179520,18.153528,0.097448,0.013336,0.098590,7.756000,23.643439

0.616266,17.106560,59.468994,18.153528,0.084125,-0.002652,0.099656,7.756000,23.643439

5.023102,12.498544,54.439453,18.141764,-0.017397,-0.115099,0.055689,7.752000,23.643439

2.014957,16.110231,72.095535,18.147646,-0.026990,-0.045552,0.104185,7.756000,23.643439

-5.246742,14.088837,63.588428,18.150587,-0.084280,-0.102575,0.128167,7.752000,22.770166

-4.317474,24.789783,66.222946,18.135881,-0.118920,-0.084722,0.163074,7.752000,22.770166

-13.993354,7.775565,82.556984,18.129999,-0.034185,-0.059142,0.207573,7.756000,22.770166

2.541862,23.611433,70.227425,18.132940,-0.039780,-0.030097,0.265928,7.760000,22.770166

-7.411839,16.560495,72.287140,18.132940,-0.082681,0.043180,0.318688,7.752000,22.770166

-4.413275,19.242918,85.306465,18.121176,-0.049373,-0.005316,0.276054,7.752000,22.770166

-1.299750,18.016668,65.753525,18.135881,0.018042,0.073556,0.207839,7.760000,22.770166

-3.158285,22.251062,70.026237,18.132940,-0.031786,0.069826,0.156679,7.752000,22.770166

-6.214330,14.922303,70.562721,18.106470,-0.085612,0.023994,0.092461,7.756000,22.770166

-3.426527,15.238446,72.153015,18.094706,-0.077085,0.030922,0.098323,7.760000,22.770166

-16.694935,12.642244,59.583954,18.103529,-0.004607,0.040515,0.074875,7.752000,22.770166

-12.307260,7.900105,67.679123,18.106470,-0.095471,-0.056477,0.119374,7.752000,22.770166

-12.479701,18.227428,65.590660,18.103529,-0.080816,-0.005849,0.077806,7.748000,22.770166

1.133590,20.287146,77.920227,18.109411,-0.131710,0.017599,0.101254,7.744000,22.770166

-19.626438,28.296091,82.930603,18.091763,-0.117854,0.069027,0.096991,7.756000,22.770166

-9.730219,25.115505,75.084518,18.079998,-0.067226,0.182806,0.131098,7.752000,22.770166

-4.729418,22.710905,71.683594,18.065292,-0.113058,0.028524,0.039435,7.744000,22.770166

1.373092,22.672585,75.256966,18.062351,-0.048840,0.124184,0.042100,7.748000,22.770166

-10.985209,20.354206,70.524406,18.062351,-0.005140,0.163887,0.002130,7.740000,22.169386

-0.648305,22.835447,67.813240,18.056469,-0.039247,0.009339,-0.067150,7.736000,22.169386

5.521266,21.398436,74.548035,18.068233,-0.038182,0.035186,-0.058890,7.740000,22.169386

0.817447,20.200926,70.639366,18.071175,-0.126381,0.139906,-0.016522,7.744000,22.169386

-17.557142,8.197088,68.445526,18.062351,-0.089609,0.069293,-0.010660,7.736000,22.169386

-8.484809,14.376239,70.189102,18.056469,-0.063762,-0.056744,-0.033309,7.740000,22.169386

1.947897,20.938591,73.934914,18.065292,-0.018730,-0.004251,-0.043701,7.740000,22.169386

-5.342543,23.975475,69.211937,18.050587,-0.076286,0.090876,-0.018121,7.744000,22.169386

7.140299,19.463259,73.791214,18.035881,-0.052571,0.049841,-0.019986,7.740000,22.169386

-0.562084,17.834646,59.861778,18.024117,0.081727,0.076754,-0.090066,7.740000,22.169386

2.896324,17.422703,55.263340,18.035881,0.084125,-0.005583,-0.111383,7.736000,22.169386

-6.386771,20.632029,58.922928,18.021175,-0.062163,0.002944,-0.143358,7.740000,22.169386

3.576510,21.206833,63.425568,18.027058,-0.075486,-0.087653,-0.147622,7.740000,22.169386

4.687799,14.280438,65.293678,18.012352,-0.103465,-0.059142,-0.165741,7.732000,22.169386

-2.516420,22.672585,72.277557,18.018234,-0.074420,0.066628,-0.049030,7.728000,22.169386

-0.801586,13.734373,65.217041,18.012352,-0.050972,-0.025301,0.021849,7.724000,22.169386

-2.468519,19.597380,73.791214,18.006470,-0.035783,0.025060,0.038103,7.724000,22.169386

-4.604877,23.831776,69.144875,18.003529,-0.075486,0.049308,0.052492,7.720000,22.169386

-3.761830,29.043337,71.319550,18.003529,-0.115722,-0.034627,-0.005331,7.720000,21.071237

-6.013148,21.283474,84.559219,18.015293,-0.100001,0.059700,0.006927,7.724000,21.071237

-6.750814,19.559059,75.065361,18.015293,0.005518,0.001079,-0.080473,7.724000,21.071237

-2.545160,27.548845,75.247383,17.994705,0.014045,0.051440,-0.088200,7.720000,21.071237

-8.963813,29.273260,70.677689,17.994705,0.078263,0.065296,-0.096994,7.728000,21.071237

-2.296078,28.516434,44.227089,18.006470,0.100112,0.066895,-0.111383,7.728000,21.071237

-2.056576,24.052116,85.019066,18.000587,0.186713,0.076488,-0.085003,7.728000,21.071237

1.478473,23.889256,65.916389,17.997646,0.222152,0.129780,-0.051962,7.732000,21.071237

-1.529672,22.116941,58.616367,17.985882,0.109172,0.029324,-0.052761,7.736000,21.071237

10.426266,22.164841,71.060890,18.000587,0.130489,0.009872,-0.104188,7.732000,21.071237

2.062858,34.915924,63.377666,17.997646,0.047886,0.182806,-0.123373,7.736000,21.071237

-13.418550,18.581892,70.160362,17.988823,0.033230,0.107664,-0.296041,7.724000,21.071237

-8.935073,16.694616,67.133057,17.994705,0.040158,0.033054,-0.482298,7.728000,21.071237

-2.190697,8.340790,68.004845,17.994705,0.137417,-0.046885,-0.568366,7.732000,21.071237

2.541862,5.610467,74.318115,17.994705,0.028967,-0.094315,-0.516939,7.724000,21.071237

-17.068558,22.634266,72.335037,17.982941,0.086789,-0.056477,-0.382109,7.728000,21.071237

-2.382299,27.146482,65.197884,17.977058,0.036961,-0.143610,-0.260069,7.728000,21.071237

-9.883500,22.998308,77.517860,17.988823,0.067604,-0.090851,-0.232890,7.724000,21.071237

-6.683753,24.176659,73.628349,17.977058,0.089720,-0.089252,-0.178531,7.732000,20.823126

-2.775082,21.810379,54.793915,17.985882,0.023105,-0.141479,-0.157214,7.728000,20.823126

-4.173773,27.577585,49.285370,17.962351,0.072134,-0.097246,-0.095128,7.724000,20.823126

-4.892279,14.376239,48.289043,17.980000,0.096382,-0.131886,-0.093263,7.724000,20.823126

6.670875,6.942098,82.997665,17.985882,0.095583,-0.139347,-0.050896,7.720000,20.823126

-0.763265,11.109432,73.427170,17.977058,0.103310,-0.092716,0.038103,7.720000,20.823126

-15.957270,19.913523,63.962051,17.980000,0.014578,-0.176385,0.117509,7.724000,20.823126

-12.872484,17.604725,68.493431,17.977058,-0.132243,-0.225681,0.118042,7.720000,20.823126

-7.890843,15.487528,74.845016,17.950586,-0.194595,-0.232076,0.148685,7.716000,20.823126

-4.509076,20.833210,78.466286,17.965292,-0.153293,-0.208894,0.217166,7.712000,20.823126

-11.090590,26.705799,77.517860,17.956469,-0.049906,-0.091917,0.245411,7.720000,20.823126

-4.317474,8.254569,64.766777,17.947645,-0.097336,-0.178784,0.284048,7.720000,20.823126

4.860240,11.071112,66.529510,17.959410,0.044155,-0.125225,0.334409,7.708000,20.823126

-7.076537,15.707870,60.934746,17.953527,0.098247,-0.006116,0.376777,7.712000,20.823126

-7.593861,28.985857,64.364410,17.962351,0.120630,0.035452,0.384770,7.716000,20.823126

-8.800951,16.225193,63.195644,17.947645,-0.041113,0.001345,0.350930,7.724000,20.823126

