ax,ay,az,gx,gy,gz,temp,volt,vel

-0.193251,0.944969,9.741203,15.541763,-0.003541,-0.003185,0.002663,1.712000,0.000000

-0.284262,0.901859,9.638218,15.562351,-0.006206,-0.010646,0.030908,1.656000,0.000000

-0.128585,0.767738,9.779524,15.565292,-0.003009,-0.003718,0.026911,1.616000,0.000000

-0.095055,0.772528,9.671748,15.571175,-0.004074,-0.007182,0.015453,1.584000,0.000000

-0.207621,0.746182,9.669353,15.568233,-0.001943,-0.002385,0.025579,1.552000,0.000000

-0.315397,0.801268,9.714858,15.577057,-0.001676,-0.009580,0.024247,1.516000,0.000000

-0.339347,0.901859,9.686118,15.594706,0.002321,-0.013843,0.043965,1.480000,0.000000

-0.336952,0.841983,9.731624,15.603529,0.002854,-0.021837,0.062884,1.448000,0.000000

-0.301027,0.901859,9.604687,15.585880,0.003120,-0.035693,0.081270,1.416000,0.000000

0.106127,0.818033,9.662168,15.621176,0.001521,-0.037825,0.124703,1.380000,0.000000

-0.001649,0.832403,9.726833,15.621176,0.003387,-0.037825,0.158810,1.356000,0.000000

0.300123,0.841983,9.592712,15.612352,0.004985,-0.031430,0.169469,1.316000,0.000000

0.534835,0.839588,9.657377,15.621176,0.001521,-0.017840,0.157478,1.288000,0.000000

0.388739,0.868328,9.652588,15.641764,-0.001410,0.000279,0.103653,1.260000,0.000000

0.491725,0.815638,9.662168,15.615294,-0.003808,0.016533,0.009325,1.236000,0.000000

0.556390,0.755763,9.626243,15.635881,-0.005407,0.034386,-0.042102,1.216000,0.000000

0.355209,0.762947,9.662168,15.627058,-0.006206,0.050374,-0.061288,1.188000,0.000000

0.443824,0.870723,9.619058,15.638823,-0.006473,0.058102,-0.071147,1.176000,0.000000

0.465380,0.897069,9.611873,15.662352,-0.007005,0.077553,-0.043701,1.152000,0.000000

0.132472,0.858748,9.628637,15.671175,-0.006473,0.085281,-0.029579,1.132000,0.000000

0.254618,0.810848,9.702883,15.656469,-0.007538,0.096472,-0.044501,1.120000,0.000000

0.314493,0.813243,9.669353,15.668234,-0.008338,0.112193,-0.061021,1.104000,0.000000

-0.305817,0.873118,9.403505,15.674116,0.001788,0.143103,-0.040237,1.092000,0.000000

-0.483048,0.750972,9.913645,15.659410,0.011913,0.114592,0.013855,1.076000,0.000000

0.103732,0.832403,9.484936,15.677057,0.000722,0.108729,0.042633,1.064000,0.000000

-0.293842,0.875513,9.650192,15.674116,0.005785,0.139373,0.046630,1.056000,0.000000

-0.854276,0.899464,9.573552,15.671175,-0.000344,0.112726,-0.007995,1.044000,0.000000

-0.703390,1.033585,9.566367,15.685881,-0.004341,0.107930,-0.041037,1.032000,0.000000

-1.613497,0.997660,9.762758,15.691763,-0.001410,0.105532,-0.092997,1.024000,0.000000

-1.730853,1.189261,9.616662,15.682940,-0.008871,0.058102,-0.161744,1.016000,0.000000

-2.310448,1.019215,9.664562,15.691763,-0.013134,0.027192,-0.182262,1.004000,0.000000

-2.068551,1.335357,9.880115,15.700586,-0.006473,-0.045819,-0.182795,1.000000,0.000000

-2.605036,1.206026,9.587922,15.697645,-0.000877,-0.096713,-0.113781,0.996000,0.000000

-2.171537,1.246742,9.604687,15.709410,0.013779,-0.158266,-0.000801,0.988000,0.000000

-1.163234,1.059930,9.422666,15.721176,-0.011269,-0.243001,-0.044501,0.976000,0.000000

-1.675768,2.243070,9.741203,15.724117,0.060143,-0.272045,-0.104988,0.976000,0.000000

-0.593219,1.879027,9.966335,15.718235,0.043356,-0.314413,-0.158546,0.968000,0.000000

-0.231571,2.132899,9.666958,15.697645,0.080394,-0.347454,-0.208109,0.960000,0.000000

0.553995,1.531749,9.396320,15.703527,0.014578,-0.286168,-0.160945,0.956000,0.000000

1.001864,1.285062,9.108918,15.724117,0.030299,-0.295761,-0.079407,0.956000,0.000000

0.829423,1.881422,9.283754,15.706469,-0.062696,-0.284569,-0.026115,0.972000,0.000000

0.858163,1.483848,9.278965,15.703527,-0.073088,-0.285369,0.063150,1.096000,0.000000

1.389857,2.889725,10.253737,15.730000,-0.065894,-0.219552,0.148152,1.324000,0.000000

1.603014,2.111343,10.198652,15.721176,-0.041113,-0.180915,0.236884,1.416000,0.000000

0.446219,1.555699,9.635822,15.712351,0.016443,-0.137215,0.227824,1.392000,0.000000

-0.049550,1.028795,9.516071,15.727058,-0.033119,-0.174254,0.171334,1.384000,0.000000

-0.401617,0.135452,9.300520,15.730000,0.020440,-0.224349,0.065282,1.368000,0.000000

0.098942,1.483848,9.396320,15.730000,0.027635,-0.245399,0.015453,1.348000,0.000000

1.423388,1.550909,9.288545,15.753529,-0.010203,-0.217154,0.227291,1.456000,0.000000

2.079623,1.467083,9.276569,15.753529,-0.036583,-0.204897,0.384504,1.468000,0.000000

2.367025,1.946087,9.405901,15.750587,-0.026457,-0.165460,0.457515,1.560000,0.000000

2.268829,0.779713,9.262199,15.756470,-0.012601,-0.159865,0.413548,1.748000,0.000000

1.959872,1.414393,9.592712,15.741764,0.008716,-0.125225,0.425006,2.352000,0.000000

1.619779,1.299432,9.640613,15.735882,0.028967,-0.084456,0.389567,2.936000,0.000000

0.951569,1.428763,10.169911,15.750587,0.018042,-0.105506,0.393564,3.232000,0.000000

0.587526,0.942574,9.264594,15.756470,0.002321,-0.095914,0.443659,3.436000,0.000000

0.731227,1.289852,9.542417,15.753529,0.071867,-0.097512,0.498017,3.476000,0.000000

0.182767,1.134176,10.119617,15.759411,0.011913,-0.178251,0.579022,3.840000,0.000000

1.514398,0.226463,8.699369,15.777058,0.063607,-0.156134,0.662424,4.204000,0.000000

1.334772,2.504127,10.792617,15.765293,0.091586,-0.158532,0.741830,4.980000,0.000000

3.023261,-0.247751,8.711345,15.765293,0.030566,-0.183313,0.843619,4.932000,0.000000

2.664008,0.880304,9.422666,15.771175,0.189910,-0.073797,0.943276,5.688000,0.000000

3.351378,1.380862,9.494516,15.774117,0.033230,-0.007448,0.923824,5.652000,0.000000

3.226837,1.024005,7.853928,15.782940,0.177120,0.093541,0.830829,6.200000,0.000000

0.237853,1.953272,10.663286,15.785881,-0.039247,0.157759,0.645904,6.264000,1584.598863

1.861676,1.814361,9.046648,15.774117,-0.090142,0.154827,0.405022,6.136000,1584.598863

0.616266,0.669542,8.706554,15.794704,-0.004607,0.167085,0.150550,6.652000,1584.598863

0.839003,2.688543,9.140054,15.800587,0.032697,0.193465,-0.126571,6.740000,1584.598863

2.350260,0.619246,8.819120,15.779999,0.061742,0.114059,-0.312828,7.008000,1584.598863

2.295175,1.529354,9.674143,15.779999,0.053482,0.273403,-0.369851,7.028000,1584.598863

2.223324,0.224068,9.039463,15.791763,0.021240,0.224108,-0.403159,7.068000,1584.598863

1.509608,0.830008,8.086245,15.782940,0.036961,0.204656,-0.279787,7.036000,1584.598863

-0.301027,2.666988,11.532678,15.785881,0.048952,0.184405,-0.173735,7.032000,1584.598863

1.131195,1.093460,9.544811,15.809410,0.054547,-0.018906,-0.081006,7.068000,1584.598863

2.151473,2.748419,10.150752,15.788822,-0.078151,0.119388,0.191319,7.048000,1584.598863

0.003141,-0.439352,8.263476,15.791763,0.011114,-0.015442,0.561968,7.100000,1584.598863

-1.979935,1.376073,9.942385,15.806469,0.149674,-0.019972,0.842820,7.088000,1584.598863

-2.224227,0.446805,9.822634,15.794704,0.002587,-0.158799,1.091962,7.080000,1584.598863

0.702486,0.616851,8.708950,15.806469,0.051083,-0.157733,1.061852,7.152000,27.477613

2.271224,0.980894,10.296848,15.809410,0.115034,-0.135084,1.167371,7.168000,27.477613

2.460431,0.633617,9.875324,15.800587,0.118765,-0.057543,1.336308,7.204000,27.477613

0.918038,0.652777,9.482541,15.788822,0.209096,0.101801,1.318988,7.220000,1362.024446

0.266593,1.138966,10.239367,15.791763,0.142214,0.082083,1.056522,7.236000,1853.174997

1.497633,1.131781,8.967612,15.806469,0.218155,0.090610,0.686406,7.232000,772.293618

2.048487,0.034862,9.923224,15.806469,0.172324,0.179875,0.459913,7.248000,1093.631483

2.984940,0.889884,9.439431,15.803528,0.181117,0.306445,0.208639,7.260000,1725.163325

1.571879,1.505404,8.493398,15.806469,0.137151,0.325363,-0.166540,7.256000,2518.287980

1.248551,1.390443,9.255014,15.803528,0.045754,0.386650,-0.555309,7.256000,2405.307471

1.967057,0.497100,9.657377,15.800587,0.017776,0.395976,-0.795125,7.260000,2296.698492

1.967057,1.316197,9.654983,15.824116,-0.056301,0.446870,-1.014424,7.248000,2241.459183

2.163449,1.012030,8.517348,15.818233,-0.029122,0.338953,-1.052262,7.244000,2331.012212

0.479750,0.770133,9.822634,15.838821,-0.117321,0.399973,-1.056792,7.240000,2228.151356

1.749110,1.055140,9.041858,15.850588,-0.047241,0.306445,-0.997637,7.252000,2211.473135

1.004259,0.659962,9.329260,15.874117,-0.001410,0.319501,-1.014424,7.268000,2640.395480

1.432967,1.483848,9.130473,15.871176,0.008716,0.336022,-1.098626,7.276000,1212.419441

0.374369,2.013148,9.468171,15.885881,0.028168,0.242494,-1.151652,7.256000,2638.388754

0.800682,2.427486,9.714858,15.888823,0.035096,0.309642,-1.287814,7.268000,2638.388754

0.465380,1.704190,10.919553,15.891764,0.134753,0.357073,-1.262234,7.280000,1541.843165

0.472565,1.730535,9.745994,15.921175,0.044155,0.298451,-1.092497,7.292000,506.726990

-0.061525,1.119806,9.350815,15.897646,-0.035517,0.334956,-0.920096,7.280000,1953.276102

-5.311408,3.119647,12.167358,15.906469,0.180851,0.200925,-0.636847,7.296000,1635.937759

-0.130980,1.586834,8.730505,15.891764,0.145411,0.148699,-0.629386,7.276000,2600.344444

-0.444728,1.627550,10.680051,15.903528,-0.089609,0.166818,-0.290445,7.284000,2673.953208

-3.687584,3.699241,10.227392,15.906469,0.000722,0.190533,-0.453787,7.280000,1115.149385

-1.766779,2.762789,10.143566,15.906469,0.027368,0.072224,-0.475637,7.280000,1266.609515

-1.060248,2.209539,11.235696,15.903528,0.063874,0.038916,-0.346403,7.300000,2752.396251

-0.863856,1.673055,10.383068,15.900587,0.047086,0.004276,-0.153750,7.312000,1741.607841

-1.395551,1.488638,9.180769,15.882940,0.034563,0.055703,0.005328,7.296000,2318.944524

-2.111661,0.451595,9.750783,15.903528,0.112370,0.012270,-0.140161,7.300000,2484.049902

-1.009952,0.750972,10.842913,15.894705,0.026302,-0.053546,-0.301903,7.308000,2641.902590

-0.586034,1.397628,9.343630,15.882940,0.022572,-0.000520,-0.317358,7.308000,680.478282

-2.104476,2.700518,9.226274,15.888823,0.012446,-0.029032,-0.288580,7.316000,941.795900

-2.372719,2.544842,8.754455,15.912352,-0.071223,-0.101509,-0.127370,7.328000,2612.084140

-2.775082,1.771251,10.433364,15.900587,-0.080283,-0.089785,0.007726,7.324000,2361.939012

-2.564320,2.044283,10.289662,15.915293,-0.059232,-0.225148,0.190786,7.344000,2692.097646

-1.584757,1.634735,9.815449,15.894705,0.047353,-0.167326,0.148152,7.356000,2586.780875

-1.884135,2.377191,9.573552,15.882940,0.012979,-0.132686,0.017585,7.356000,1109.624374

0.781522,1.098250,8.955637,15.900587,0.096915,-0.163862,0.038103,7.372000,1191.712937

-0.894992,1.275482,8.807145,15.885881,0.019907,-0.101776,0.069545,7.368000,1126.091878

0.003141,0.116292,10.251343,15.888823,0.073733,-0.083923,0.075141,7.368000,1206.205710

-1.124913,1.414393,8.998747,15.877058,0.079595,-0.106306,0.213968,7.376000,1658.010684

-1.817074,0.889884,10.787827,15.874117,0.002587,-0.080459,0.320819,7.364000,1046.566123

-0.746500,1.043165,9.458591,15.891764,0.039892,-0.055145,0.348265,7.376000,1705.458065

-3.867211,-1.028527,7.717412,15.894705,0.002587,-0.065803,0.250740,7.372000,336.552993

-2.092501,0.568951,9.853769,15.903528,-0.003808,-0.123359,-0.075943,7.376000,893.669651

-2.092501,1.409603,10.742321,15.888823,0.059344,-0.099111,-0.210773,7.380000,893.669651

1.282081,4.034544,8.196416,15.894705,0.097981,-0.109503,0.081270,7.384000,893.669651

-1.936825,-0.470488,7.865902,15.877058,-0.049639,-0.081791,-0.526531,7.396000,893.669651

2.587367,1.328172,11.975757,15.891764,-0.017664,0.063697,-1.071447,7.400000,893.669651

2.357445,3.668106,8.572433,15.882940,0.000988,0.021330,-0.779937,7.404000,893.669651

1.581459,0.645592,9.250224,15.885881,0.076131,0.143903,-0.307499,7.396000,893.669651

-1.651818,-1.148278,8.876601,15.877058,-0.008604,-0.019439,-0.380510,7.404000,893.669651

0.371974,0.310289,12.222444,15.894705,-0.010469,-0.060208,-0.392767,7.396000,893.669651

-0.370482,2.875355,10.555510,15.906469,0.005785,0.023461,-0.203579,7.396000,893.669651

-1.213529,0.980894,10.785432,15.874117,0.013512,-0.010113,-0.359726,7.388000,893.669651

-1.021928,1.083880,9.362790,15.888823,-0.103465,-0.056477,-0.556641,7.400000,35.175129

0.125287,2.813084,9.130473,15.888823,-0.058166,-0.055411,-0.641110,7.400000,35.175129

0.446219,1.852681,9.597502,15.879999,-0.015799,-0.019439,-0.581689,7.400000,35.175129

-0.638724,0.818033,9.906460,15.879999,-0.077618,-0.104174,-0.516939,7.404000,35.175129

-1.017138,1.740115,11.242881,15.879999,0.003120,-0.114033,-0.517738,7.416000,35.175129

-0.854276,2.084998,9.408296,15.885881,0.118232,-0.197702,-0.397297,7.424000,35.175129

-2.530790,-0.453722,8.553273,15.879999,0.145411,-0.217954,-0.239551,7.428000,35.175129

-0.700995,-1.488371,10.454919,15.894705,0.116367,-0.273911,-0.183328,7.424000,35.175129

-0.061525,0.271969,9.324470,15.897646,0.152606,-0.257124,0.050360,7.416000,35.175129

-0.605194,0.291129,9.027488,15.879999,0.119031,-0.261387,0.429803,7.416000,35.175129

-2.037416,0.202513,9.892090,15.877058,0.055347,-0.253926,0.759150,7.420000,35.175129

-2.030231,1.843101,8.395202,15.882940,0.056413,-0.223283,0.760216,7.416000,35.175129

0.403109,1.275482,8.330537,15.888823,0.058544,-0.231543,0.847083,7.420000,35.175129

-0.643515,0.580926,10.181887,15.897646,0.079595,-0.115632,0.800985,7.428000,35.175129

-0.715365,1.857471,9.860954,15.888823,0.122495,0.006408,0.445524,7.432000,35.175129

0.803077,2.453831,9.614267,15.871176,0.132088,0.078619,0.238483,7.432000,35.175129

-0.514183,2.801109,8.629914,15.888823,0.048685,-0.019705,-0.008795,7.440000,35.175129

0.338444,2.506522,10.675261,15.868235,0.088921,0.063697,0.001331,7.440000,35.175129

0.338444,-0.791420,9.990285,15.897646,0.009515,0.031455,-0.046632,7.440000,35.175129

-0.233966,-0.599819,9.832214,15.874117,0.010315,0.053838,-0.052761,7.440000,35.175129

0.017511,-0.161530,10.335168,15.871176,0.001788,0.049308,-0.024782,7.436000,35.175129

-0.437543,0.226463,8.167675,15.885881,0.082259,0.023195,-0.063952,7.444000,35.175129

-0.708180,-0.025014,7.624006,15.900587,0.066272,-0.013310,-0.085003,7.440000,35.175129

-2.406249,-0.434562,9.698093,15.891764,-0.028056,0.006141,-0.019453,7.440000,16.522127

-1.292565,1.608389,10.488449,15.900587,-0.008604,-0.059408,0.039968,7.448000,16.522127

-2.643356,2.298155,10.938713,15.906469,0.022572,-0.059941,0.138293,7.452000,16.522127

-1.000372,0.063602,9.772339,15.888823,-0.003808,-0.113767,0.194783,7.452000,16.522127

-1.465006,0.315079,10.004656,15.894705,0.016710,0.021863,0.339205,7.452000,16.522127

2.034117,-1.471606,8.742480,15.879999,-0.054702,-0.289632,0.352262,7.456000,16.522127

-0.332162,0.456385,10.268107,15.900587,0.090786,-0.126290,0.310161,7.456000,16.522127

0.472565,1.958062,9.298124,15.885881,0.097181,-0.096980,0.235818,7.456000,16.522127

-0.059130,1.675450,8.313771,15.891764,0.083858,-0.058076,0.075408,7.460000,16.522127

-0.121400,1.043165,8.110195,15.900587,0.036961,-0.045819,-0.030911,7.456000,42.002190

-0.200436,-0.020224,8.507768,15.891764,-0.053903,-0.021038,-0.053560,7.456000,1435.822525

-0.559689,-0.254936,11.252460,15.915293,-0.000877,-0.095381,0.000265,7.460000,1435.822525

-0.284262,0.916229,12.442785,15.879999,0.133154,-0.110036,0.177196,7.456000,1435.822525

0.170792,2.980736,9.343630,15.909410,-0.001410,-0.054079,0.191852,7.448000,1435.822525

0.822237,2.501732,8.878996,15.891764,-0.056301,0.004809,0.261132,7.464000,1435.822525

-1.227899,1.574859,9.017907,15.897646,-0.086678,-0.084722,0.302434,7.456000,1435.822525

1.238971,1.943692,10.471684,15.882940,0.002854,0.018132,0.335741,7.464000,1435.822525

-0.049550,1.656290,9.669353,15.909410,0.025769,0.072491,0.269659,7.464000,1435.822525

0.597106,1.637130,8.766430,15.897646,0.012713,0.045045,0.180927,7.468000,1435.822525

0.168397,0.451595,9.949570,15.900587,-0.116255,0.075422,0.135095,7.464000,1435.822525

1.205441,0.571346,12.157778,15.891764,-0.163685,0.061033,0.088198,7.464000,1435.822525

0.930013,1.016820,9.942385,15.900587,-0.090675,0.169749,0.051426,7.464000,1435.822525

-0.717760,0.753367,7.762917,15.897646,0.029766,0.144968,0.058887,7.468000,32.401685

-0.418383,3.373519,11.137500,15.900587,0.039625,0.198527,0.082602,7.472000,32.401685

-0.528554,1.488638,10.763877,15.909410,-0.004874,0.092475,0.166271,7.472000,32.401685

0.352814,1.107830,8.900552,15.897646,-0.015532,0.042647,0.227025,7.472000,32.401685

-0.447123,0.818033,10.299243,15.900587,-0.044843,0.048775,0.246210,7.476000,32.401685

-0.461493,1.208421,9.508886,15.900587,-0.058966,0.117789,0.200378,7.476000,32.401685

-0.545319,0.853958,7.456354,15.891764,-0.082414,0.070359,0.171334,7.476000,32.401685

0.110917,0.418065,9.884905,15.894705,0.002321,0.098604,0.172666,7.472000,32.401685

-0.894992,1.304222,10.663286,15.894705,0.037760,0.121253,0.157212,7.476000,32.401685

-0.200436,1.505404,8.409573,15.882940,-0.041912,0.084481,0.151083,7.472000,32.401685

-1.045878,0.456385,10.143566,15.912352,-0.110659,0.063164,0.179594,7.468000,32.401685

0.829423,0.061207,12.258368,15.912352,-0.015799,0.027458,0.191319,7.468000,32.401685

-0.224386,1.620364,9.274175,15.909410,-0.025924,0.141771,0.020783,7.476000,32.401685

-0.178881,1.050350,8.737690,15.900587,-0.049107,0.083948,-0.039704,7.476000,32.401685

0.166002,0.662357,10.016630,15.906469,-0.020595,0.096206,-0.142292,7.476000,32.401685

-0.463888,1.119806,9.082573,15.909410,-0.052304,0.133510,-0.240883,7.476000,32.401685

-1.053063,0.925809,9.029882,15.894705,-0.067759,0.150831,-0.330948,7.484000,32.401685

0.508490,0.451595,9.657377,15.903528,-0.015266,0.085281,-0.337076,7.480000,32.401685

1.100060,-0.618979,8.086245,15.906469,0.114501,0.076754,-0.310963,7.484000,32.401685

-0.497418,-1.047687,6.699528,15.900587,0.077730,0.101269,-0.316559,7.492000,32.401685

-0.051945,-1.890734,8.081454,15.891764,-0.076552,0.028791,-0.303502,7.492000,32.401685

-0.789611,0.051627,10.586645,15.891764,0.064140,0.012803,-0.322954,7.492000,18.445883

-0.885411,0.925809,11.185400,15.897646,0.034563,-0.013310,-0.286981,7.488000,18.445883

-0.411198,1.943692,10.941108,15.897646,0.057212,0.135909,-0.281652,7.492000,18.445883

-0.849486,3.232213,8.984377,15.888823,-0.022993,0.034386,-0.220899,7.492000,18.445883

-1.148864,1.651500,7.588080,15.903528,-0.141835,0.021863,-0.178265,7.484000,18.445883

-0.008834,-1.102773,11.463223,15.903528,-0.162353,-0.077794,-0.184926,7.484000,18.445883

-0.820746,-0.408217,11.226115,15.903528,-0.001943,-0.029831,-0.152951,7.484000,18.445883

-1.067433,2.825059,7.449169,15.894705,0.040425,-0.002652,-0.142559,7.500000,18.445883

-1.053063,2.935230,8.641890,15.891764,-0.070956,-0.050349,-0.036507,7.492000,18.445883

0.077386,0.813243,10.591435,15.874117,0.024171,-0.067402,0.047695,7.496000,18.445883

-0.413593,3.167547,8.356882,15.879999,0.020707,0.008806,0.015453,7.500000,18.445883

-0.863856,1.213211,10.442944,15.888823,-0.072822,-0.068735,0.012256,7.504000,18.445883

0.642611,-1.373410,13.434323,15.894705,-0.085612,-0.014909,-0.014657,7.508000,18.445883

-2.003886,0.365374,9.956755,15.888823,-0.007805,0.093008,-0.053027,7.508000,18.445883

-0.751290,1.385653,7.449169,15.871176,-0.211382,-0.023436,-0.073012,7.500000,18.445883

-1.338070,-0.544733,9.310100,15.891764,-0.078151,-0.093249,-0.082871,7.504000,18.445883

-0.298632,0.382139,9.990285,15.877058,0.064673,-0.101243,-0.063419,7.504000,18.445883

-1.239874,-0.705199,8.706554,15.897646,0.058811,-0.172388,0.069812,7.508000,18.445883

-0.126190,-1.323114,8.656260,15.885881,-0.042445,-0.153203,0.192118,7.508000,18.445883

-0.724945,0.200118,10.289662,15.882940,-0.031254,-0.088186,0.271524,7.500000,18.445883

-0.777636,-0.027409,8.225156,15.882940,-0.078151,-0.113500,0.310960,7.516000,19.320934

-0.499813,0.446805,9.528047,15.897646,-0.069358,-0.036493,0.366385,7.504000,19.320934

-0.964447,1.426368,10.162726,15.900587,0.032697,-0.051947,0.301901,7.508000,178.334532

-0.542924,1.826336,9.846584,15.906469,-0.111725,-0.005849,0.238216,7.512000,178.334532

-0.792006,1.536539,9.786709,15.891764,-0.081615,-0.084189,0.204109,7.512000,178.334532

0.985099,1.110225,9.801079,15.903528,-0.047774,-0.045552,0.135895,7.512000,131.117240

-1.115333,0.281549,10.210628,15.891764,-0.054702,0.025593,0.148685,7.520000,131.117240

0.810262,-0.860876,10.514794,15.885881,-0.108528,0.101801,-0.162810,7.524000,131.117240

-0.324977,3.155572,9.499307,15.888823,0.055080,0.078353,-0.329082,7.524000,131.117240

0.240248,2.132899,10.122011,15.909410,0.008449,0.054105,-0.317625,7.520000,131.117240

0.795892,0.753367,9.815449,15.894705,0.003387,-0.020238,-0.261667,7.520000,131.117240

-0.030389,1.617970,10.239367,15.909410,0.175521,0.016267,-0.164942,7.528000,131.117240

0.060621,2.005963,9.714858,15.909410,0.145145,-0.018373,-0.124972,7.532000,131.117240

-1.041088,-0.025014,9.171188,15.906469,-0.107195,0.013069,0.031974,7.532000,27.583888

-1.371600,0.336634,8.450288,15.909410,-0.127713,-0.021837,0.067147,7.536000,27.583888

-0.190856,0.904254,8.107800,15.903528,-0.094405,-0.081525,0.108982,7.528000,27.583888

-1.079408,0.317474,10.019026,15.897646,-0.078151,-0.076195,0.086333,7.532000,27.583888

0.635426,-0.266911,10.694421,15.915293,0.023105,0.026926,0.127634,7.532000,27.583888

0.209112,0.983289,8.641890,15.891764,0.111304,-0.024502,0.052225,7.532000,27.583888

-1.321305,1.122200,8.421547,15.894705,-0.056834,0.036518,0.079138,7.540000,27.583888

-0.760870,-0.094469,11.563813,15.891764,0.041491,0.030390,0.111114,7.532000,27.583888

0.316888,1.402418,8.112590,15.897646,0.024437,0.012004,0.125236,7.540000,27.583888

-0.643515,1.455108,10.296848,15.894705,-0.068025,-0.031163,0.214235,7.540000,27.583888

-0.212411,0.061207,12.054792,15.891764,-0.002476,0.079685,0.295772,7.536000,40.193589

0.259408,1.040770,9.135263,15.888823,0.045488,0.078353,0.218231,7.540000,40.193589

-1.208739,0.468360,9.056228,15.891764,0.025237,0.120720,0.159876,7.536000,40.193589

-0.068710,0.813243,6.994115,15.888823,0.143546,0.085014,0.028244,7.540000,129.002600

0.237853,1.244346,7.624006,15.888823,0.073466,0.156426,-0.061821,7.540000,430.662154

0.189952,0.724627,9.178373,15.897646,0.040158,0.117789,-0.184660,7.540000,430.662154

-0.399222,1.088670,11.508728,15.888823,0.027368,0.040249,-0.238752,7.544000,430.662154

0.553995,2.324500,8.680209,15.906469,0.056946,0.057835,-0.346136,7.544000,430.662154

1.478473,1.754486,8.050320,15.891764,0.122762,0.085547,-0.311230,7.548000,430.662154

-0.463888,0.628826,9.815449,15.888823,0.112636,0.031722,-0.273125,7.544000,76.100969

0.393529,0.631221,9.599897,15.888823,0.079861,0.021330,-0.288847,7.548000,76.100969

-0.346532,0.832403,9.908854,15.897646,0.023638,0.043446,-0.350666,7.536000,76.100969

-0.128585,1.507799,9.590317,15.885881,-0.011535,0.030123,-0.345870,7.552000,76.100969

-0.116610,1.320987,9.695698,15.912352,-0.080016,0.022129,-0.311762,7.548000,76.100969

-1.297355,2.255045,10.986613,15.900587,0.015910,-0.022370,-0.200115,7.548000,76.100969

-0.475863,1.028795,10.454919,15.894705,0.003120,-0.054612,-0.140427,7.552000,76.100969

-0.509393,1.934112,8.407177,15.909410,0.005518,-0.059408,-0.069015,7.552000,59.540171

-1.237479,-0.116025,10.088481,15.900587,0.013779,-0.077261,-0.001867,7.556000,1268.576619

-0.609984,0.080367,10.476475,15.903528,0.028434,-0.053013,0.007726,7.556000,1050.366104

0.676141,1.744905,10.550720,15.882940,0.046287,-0.127623,-0.020785,7.556000,2503.306292

-0.473468,1.553304,9.813054,15.897646,0.077463,-0.053280,0.069279,7.560000,2503.306292

-0.844696,2.928045,10.533955,15.885881,0.235742,-0.062073,0.038369,7.556000,199.491985

-0.277076,2.940020,9.084968,15.894705,0.047086,-0.070600,0.066881,7.560000,2357.527860

-0.478258,1.637130,9.159214,15.912352,-0.055768,-0.086055,0.041567,7.560000,2717.385443

-1.079408,0.925809,9.161609,15.909410,-0.058966,-0.113767,0.035438,7.556000,1040.761428

-0.152535,-0.331576,8.285031,15.900587,-0.021661,-0.109770,0.047962,7.552000,1290.985481

0.086966,-1.157858,10.023815,15.882940,0.056679,-0.122027,0.061019,7.564000,1743.576004

-0.358507,2.439461,9.813054,15.888823,0.025237,-0.016241,0.125502,7.568000,1035.329539

-0.796796,1.615574,10.574670,15.906469,-0.009137,-0.084189,0.171601,7.568000,1035.329539

0.496515,1.471873,10.505215,15.900587,-0.036849,-0.012244,0.130032,7.564000,867.322873

-0.111820,0.420460,8.256291,15.885881,-0.122117,-0.045819,0.235552,7.560000,2454.195644

0.031881,-2.132631,11.575788,15.909410,-0.151162,-0.059408,0.567564,7.556000,1237.045851

-2.082921,-0.920751,11.891931,15.894705,-0.170880,-0.057010,0.509475,7.564000,2520.116090

-0.008834,2.844219,6.951005,15.888823,0.064406,0.222775,0.414081,7.568000,2587.744934

-0.030389,-0.465697,10.941108,15.897646,-0.063762,0.188402,-0.055692,7.568000,2722.713616

0.508490,1.864656,9.530441,15.915293,0.107573,0.255550,-0.707726,7.568000,2722.713616

-0.993187,1.632339,10.186677,15.903528,0.111837,0.170815,-0.684277,7.572000,2722.713616

-1.371600,0.121082,11.204560,15.903528,-0.014466,0.010671,-0.211573,7.576000,2722.713616

0.302518,0.552186,6.340275,15.906469,-0.086145,0.008806,-0.253674,7.576000,2722.713616

-2.252968,0.746182,9.719648,15.906469,-0.014200,-0.051681,-0.187058,7.580000,2722.713616

-0.092660,0.607271,10.629756,15.888823,-0.137306,-0.118297,-0.214770,7.584000,2722.713616

0.577946,-1.593752,10.069321,15.885881,-0.174610,-0.088986,-0.115913,7.580000,2722.713616

-0.262706,-1.593752,11.178215,15.885881,-0.123450,-0.004784,-0.093796,7.584000,2722.713616

-1.385971,0.518656,7.961703,15.897646,0.028967,-0.088453,-0.181995,7.580000,36.313007

-2.348768,-1.323114,10.905183,15.903528,-0.227103,-0.126557,-0.115913,7.584000,36.313007

0.048646,1.177286,10.294453,15.885881,-0.021927,-0.137482,-0.246746,7.584000,36.313007

-1.275800,-3.200810,10.047766,15.885881,-0.245756,-0.062872,-0.304035,7.580000,36.313007

1.253341,0.784503,10.095666,15.888823,0.100645,-0.058875,-0.358127,7.580000,36.313007

-1.639843,1.150941,9.983100,15.885881,-0.040846,-0.015176,-0.328017,7.580000,36.313007

0.939593,1.136571,8.071875,15.909410,0.121962,-0.212891,-0.207309,7.592000,36.313007

-0.832721,-0.123210,9.757969,15.879999,0.065739,-0.081258,-0.093530,7.584000,36.313007

-0.463888,2.187984,8.067084,15.894705,0.324207,-0.291764,-0.042635,7.592000,36.313007

-0.813561,1.459898,9.377160,15.877058,0.143013,-0.278174,0.031708,7.592000,36.313007

0.101337,1.859866,9.734018,15.891764,0.265053,-0.331200,0.315757,7.596000,36.313007

-0.317792,-1.361435,10.771062,15.894705,0.022305,-0.326937,0.505744,7.592000,36.313007

-0.056735,2.475386,8.234735,15.903528,0.134753,-0.247797,0.971254,7.588000,36.313007

-1.797914,0.008516,8.981982,15.882940,0.042290,-0.183313,1.038669,7.592000,36.313007

-1.999095,-0.338761,10.186677,15.882940,0.033230,-0.322140,0.919028,7.588000,36.313007

0.314493,3.433394,13.951648,15.885881,0.410275,-0.158532,0.794856,7.592000,36.313007

3.291502,4.798556,6.809699,15.891764,-0.019529,0.063697,0.544914,7.596000,36.313007

0.268988,3.766302,9.413086,15.871176,0.311417,0.230503,0.391432,7.600000,36.313007

1.768270,0.671937,9.458591,15.891764,0.225616,0.128981,0.184657,7.592000,22.750693

1.401832,0.061207,11.535073,15.891764,0.263454,0.086080,0.064216,7.596000,22.750693

1.215021,2.942415,6.668393,15.891764,0.070002,0.230769,-0.130834,7.592000,22.750693

0.204322,1.189261,11.103970,15.888823,-0.047508,0.152163,-0.187324,7.600000,22.750693

1.409017,5.694293,10.933923,15.888823,-0.064295,0.314438,-0.268862,7.600000,22.750693

0.223483,3.117252,8.718530,15.894705,0.056679,0.116990,-0.214504,7.592000,22.750693

0.791102,2.571187,11.448853,15.906469,0.135552,0.235033,-0.030378,7.600000,22.750693

0.609081,4.602164,5.128395,15.888823,0.169659,0.043979,-0.073279,7.604000,22.750693

0.247433,-3.114589,8.033554,15.885881,0.067071,-0.208094,-0.047965,7.600000,22.750693

-0.758475,0.422855,11.434483,15.885881,-0.005140,0.166285,-0.140960,7.600000,22.750693

1.219811,5.890685,10.759087,15.897646,-0.004074,-0.012244,-0.126837,7.600000,22.750693

3.083136,6.003251,9.197534,15.885881,0.306354,0.277134,0.043699,7.604000,22.750693

0.010326,4.729100,10.696816,15.891764,0.287436,0.052772,-0.108185,7.600000,22.750693

1.907181,3.555540,11.968572,15.885881,0.072667,-0.080992,-0.142292,7.604000,22.750693

0.896483,6.314603,11.245275,15.900587,0.103310,0.186270,-0.041569,7.596000,22.750693

1.116825,7.354042,13.348103,15.903528,-0.135440,0.054371,-0.027181,7.604000,22.750693

-2.837352,-0.283676,13.975597,15.903528,-0.451198,0.144169,0.085800,7.596000,22.750693

-1.184789,0.092342,12.466736,15.903528,-0.478111,-0.031163,0.254737,7.608000,22.724370

-0.720155,1.886212,8.749665,15.877058,-0.497030,0.050641,0.353861,7.600000,22.724370

-2.296078,0.394115,10.498030,15.897646,-0.205520,-0.157999,0.321619,7.596000,22.724370

-1.474586,1.907767,8.131750,15.879999,-0.023793,-0.102042,0.405555,7.604000,22.724370

-0.629144,0.916229,8.943662,15.879999,-0.236696,-0.084989,0.592878,7.600000,22.724370

-1.920060,0.377349,9.789104,15.877058,-0.013134,-0.039157,0.679744,7.604000,22.724370

-1.024323,0.190538,10.011841,15.888823,0.023105,-0.041555,0.717049,7.608000,22.724370

-0.229176,0.377349,9.264594,15.894705,0.162731,0.028258,0.722911,7.604000,22.724370

-1.000372,0.161798,9.690907,15.888823,0.152339,-0.004517,0.636045,7.612000,22.724370

1.777850,0.832403,13.161291,15.888823,0.063874,0.207587,0.500149,7.608000,22.724370

0.151632,1.407208,12.335010,15.877058,-0.227103,0.393578,0.318954,7.612000,22.724370

0.815052,2.841825,10.878838,15.897646,-0.195927,0.394644,0.176663,7.608000,22.724370

1.147960,2.084998,4.898473,15.900587,-0.202056,0.480178,0.020516,7.612000,22.724370

0.285753,-0.626164,12.816408,15.879999,0.002054,0.373060,-0.197184,7.608000,22.724370

1.028209,-0.856086,7.063571,15.885881,-0.243624,0.553189,-0.355196,7.612000,22.724370

-0.099845,-1.802118,12.299084,15.891764,-0.435744,0.389314,-0.452188,7.612000,22.724370

0.177977,1.450318,11.240485,15.885881,-0.226304,0.502295,-0.652834,7.616000,22.724370

-1.153654,4.247701,7.355763,15.888823,-0.226304,0.472451,-0.642442,7.608000,22.855957

1.950292,6.966048,10.512400,15.894705,0.041224,0.298451,-0.777006,7.612000,22.855957

0.891693,4.501573,10.704001,15.885881,-0.005140,0.366132,-0.812445,7.608000,22.855957

0.453404,3.177127,10.090877,15.891764,0.098780,0.249955,-0.660295,7.616000,22.855957

-1.354835,-0.101654,11.494358,15.888823,-0.113590,0.196129,-0.764749,7.608000,22.855957

-0.425568,2.432276,10.682446,15.903528,-0.129578,0.078619,-0.683744,7.620000,22.855957

-2.104476,-0.403427,8.074269,15.897646,0.140348,0.064230,-0.580890,7.620000,22.855957

-1.381181,-1.878759,8.737690,15.885881,0.163264,-0.168924,-0.573962,7.616000,22.855957

0.621056,-2.067966,10.004656,15.874117,0.282106,-0.179316,-0.379977,7.616000,22.855957

-1.065038,-0.887221,6.230104,15.882940,0.175255,-0.196370,-0.230491,7.624000,22.855957

-0.499813,-2.166161,9.853769,15.877058,0.046820,-0.251794,-0.130568,7.616000,22.855957

-3.153495,1.395233,9.678933,15.903528,0.200569,-0.243267,-0.149753,7.620000,22.855957

-1.527277,2.094578,10.153147,15.888823,0.152073,-0.227013,0.022914,7.616000,22.855957

-0.068710,4.597374,11.798525,15.885881,0.338596,-0.225947,0.028510,7.620000,22.855957

-0.607589,2.468201,10.124407,15.900587,0.302890,-0.110836,0.109515,7.620000,22.855957

-1.663793,0.700677,9.686118,15.885881,0.201635,-0.242735,0.082869,7.624000,22.855957

-0.322582,2.176009,9.561577,15.882940,-0.023526,-0.309617,0.191052,7.620000,22.855957

-1.797914,1.349727,10.359118,15.900587,-0.100267,-0.018640,0.294440,7.620000,22.942510

-1.033903,1.198841,10.181887,15.906469,-0.057900,-0.180116,0.265928,7.620000,22.942510

0.532440,-1.280004,7.087521,15.900587,-0.097603,-0.264851,0.316823,7.624000,22.942510

-1.072223,-1.909894,8.831096,15.888823,-0.109860,-0.211292,0.239815,7.628000,22.942510

1.377882,-0.870456,8.213181,15.882940,-0.083747,-0.123093,0.184924,7.620000,22.942510

-0.336952,1.649105,10.510005,15.877058,-0.021661,-0.154003,0.033839,7.628000,22.942510

1.725160,3.680081,8.124565,15.894705,0.151806,0.046644,0.052758,7.632000,22.942510

0.005536,0.988079,9.262199,15.888823,0.165396,-0.073797,0.071411,7.628000,22.942510

0.180372,0.564161,9.266990,15.906469,0.164063,-0.053280,0.044498,7.620000,22.942510

-0.339347,-0.362712,8.536509,15.897646,0.128357,-0.065537,-0.013058,7.624000,22.942510

1.315612,0.176168,7.614426,15.900587,0.121163,-0.190774,-0.043701,7.628000,22.942510

-1.503326,-1.045292,10.818962,15.879999,0.283439,-0.035693,-0.095661,7.624000,22.942510

0.839003,-1.885944,6.052873,15.882940,-0.046975,-0.054079,-0.043968,7.624000,22.942510

-1.096173,-0.329181,5.013434,15.888823,0.152872,-0.064205,-0.067683,7.632000,22.942510

0.036671,0.537816,10.059741,15.900587,0.141148,-0.063405,0.016786,7.628000,22.942510

3.387303,6.297838,9.707673,15.891764,0.140881,-0.054346,0.023181,7.628000,22.942510

-1.376390,2.480176,10.818962,15.903528,-0.014466,0.063697,0.066614,7.632000,22.942510

-0.392037,0.640802,8.864626,15.882940,-0.005673,-0.045019,0.038103,7.632000,23.222797

1.770665,0.442015,6.989326,15.879999,0.068670,-0.174787,0.067947,7.632000,23.222797

1.452128,1.100645,9.640613,15.891764,-0.010736,-0.031430,0.214501,7.632000,23.222797

-3.201395,-3.686999,11.487172,15.877058,-0.333688,-0.046352,0.249940,7.632000,23.222797

-2.118846,-0.750705,9.872930,15.882940,-0.255615,0.002677,0.378109,7.632000,23.222797

-0.839906,4.022569,7.643166,15.879999,0.314615,0.018132,0.226492,7.632000,23.222797

-1.086593,2.837034,11.487172,15.879999,0.132088,0.017599,0.194516,7.632000,23.222797

1.186280,4.879986,9.049043,15.871176,0.197638,0.027458,0.131631,7.636000,23.222797

0.170792,-0.101654,12.574512,15.879999,-0.216978,0.019997,0.344801,7.636000,23.222797

-2.140402,3.785462,10.926738,15.891764,0.107840,0.231835,0.304565,7.644000,23.222797

-1.326095,4.377032,6.275609,15.879999,-0.016065,0.116990,0.355460,7.644000,23.222797

2.867584,0.913834,12.289504,15.874117,0.042823,-0.034361,0.288311,7.640000,23.222797

-1.544042,6.010436,10.876443,15.871176,0.111037,0.585164,0.042899,7.644000,23.222797

1.085690,4.226146,11.678774,15.868235,-0.151695,0.101801,0.082869,7.644000,23.222797

1.152750,3.054981,11.372211,15.865294,-0.072555,0.455397,-0.170537,7.644000,23.222797

-0.224386,3.677686,12.114668,15.882940,0.049218,0.301648,-0.158813,7.652000,23.866581

-1.208739,1.673055,10.780642,15.879999,-0.201523,0.249155,-0.164942,7.644000,23.866581

0.436639,-0.264516,6.910290,15.888823,-0.117854,0.035985,-0.193453,7.644000,23.866581

2.055673,2.913675,10.162726,15.891764,0.331668,0.136708,-0.221432,7.652000,23.866581

-0.387247,2.966366,7.358159,15.874117,0.463834,0.093541,-0.160412,7.648000,23.866581

1.871256,-0.647719,8.440707,15.874117,-0.072289,-0.057277,-0.014390,7.652000,23.866581

1.694025,-1.131513,12.076347,15.865294,-0.052837,0.156693,-0.075677,7.648000,23.866581

-0.303422,2.185589,9.360395,15.879999,-0.011802,0.127115,-0.087401,7.652000,23.866581

0.041461,2.020333,9.844189,15.891764,-0.191131,0.233434,-0.118044,7.652000,23.866581

0.122892,0.688702,10.004656,15.874117,-0.107728,0.161223,-0.240084,7.648000,23.866581

0.613871,0.535421,9.262199,15.874117,0.191776,0.149765,-0.328550,7.648000,23.866581

-0.164511,2.841825,8.512558,15.859411,0.237341,0.239296,-0.450056,7.652000,23.866581

0.707277,3.713611,7.106681,15.882940,0.243203,-0.019972,-0.539321,7.652000,23.866581

0.290543,1.153336,11.168635,15.871176,-0.023793,0.167884,-0.473772,7.648000,23.866581

-0.483048,0.729417,9.005932,15.874117,-0.198858,0.059967,-0.357061,7.648000,23.866581

-0.279472,2.544842,8.929292,15.862352,-0.216978,0.022662,-0.312828,7.652000,23.866581

-1.953590,-1.330299,8.708950,15.865294,-0.076286,-0.035960,-0.335744,7.652000,23.866581

-1.776359,-3.437917,8.052714,15.868235,-0.108261,-0.136416,-0.280853,7.656000,24.229560

-1.424291,-4.173188,9.779524,15.865294,-0.121584,-0.267782,-0.252608,7.656000,24.229560

-2.229017,-3.536113,7.968888,15.882940,-0.264675,-0.054612,-0.026648,7.652000,24.229560

-2.449359,-3.385226,8.558064,15.885881,-0.105064,-0.156934,-0.052761,7.660000,24.229560

-2.197882,-1.766193,8.586803,15.865294,0.083059,-0.188110,0.022382,7.656000,24.229560

-1.802704,-0.080099,6.431286,15.865294,0.201368,-0.132686,0.018118,7.660000,24.229560

1.188675,-0.671669,12.035632,15.868235,-0.032852,-0.144410,0.041833,7.656000,24.229560

1.212626,4.104000,11.056069,15.877058,0.095050,-0.010912,-0.035441,7.656000,24.229560

-0.506998,4.561449,11.932646,15.862352,0.301025,-0.023436,-0.071147,7.656000,24.229560

-1.158444,1.213211,10.926738,15.844706,0.121163,0.081284,0.021316,7.660000,24.229560

-2.030231,0.774923,8.613149,15.865294,-0.057900,-0.163329,-0.078874,7.660000,24.229560

0.683326,-0.733940,11.836845,15.868235,-0.333688,-0.049283,-0.010127,7.656000,24.229560

-1.591942,-0.820160,11.400951,15.859411,-0.292920,0.018132,-0.122041,7.664000,24.229560

-0.039970,-1.191388,11.317126,15.871176,-0.422420,-0.101776,-0.027447,7.656000,24.229560

-2.985843,4.235726,10.943503,15.868235,-0.148497,0.062365,0.056489,7.664000,24.229560

-0.514183,0.382139,8.519743,15.885881,-0.039514,-0.217954,0.029576,7.660000,24.445265

-0.473468,0.913834,10.967453,15.871176,-0.167416,0.020530,0.212902,7.664000,24.445265

-3.469637,-0.180690,11.446457,15.871176,-0.246555,-0.095381,0.256868,7.664000,24.445265

-1.261430,2.044283,9.508886,15.868235,-0.195661,0.027991,0.346400,7.668000,24.445265

-1.117728,-0.396242,10.888417,15.882940,-0.081348,-0.146808,0.231821,7.664000,24.445265

-0.576454,-0.166320,7.923383,15.879999,-0.065894,-0.009846,0.207306,7.668000,24.445265

-2.849328,-1.897919,8.320956,15.877058,0.002321,-0.165460,0.103919,7.668000,24.445265

-0.339347,-0.676459,8.426337,15.865294,0.087056,-0.029831,0.057821,7.672000,24.445265

-0.023204,1.198841,8.699369,15.894705,0.078263,-0.054346,0.006127,7.664000,24.445265

1.037789,0.724627,11.032119,15.874117,0.063874,-0.171056,0.042899,7.672000,24.445265

2.319125,4.381822,8.512558,15.862352,0.184048,0.156426,-0.004798,7.668000,24.445265

-2.161957,0.612061,11.547048,15.874117,-0.248420,0.132445,0.057821,7.668000,24.445265

0.245038,0.473150,10.608200,15.853529,-0.082947,-0.048750,-0.039971,7.668000,24.445265

0.273778,0.360584,9.851375,15.856470,0.025503,0.022929,-0.048231,7.668000,24.445265

-0.835116,0.585716,9.302915,15.859411,-0.036583,0.066895,-0.001867,7.672000,24.445265

0.041461,3.421419,9.099339,15.868235,0.058011,0.040515,-0.094596,7.672000,24.776808

1.128800,1.888607,10.457314,15.874117,0.182982,0.106864,-0.019720,7.668000,24.776808

-0.794401,2.401141,7.430009,15.865294,0.085457,0.169749,0.019450,7.672000,24.776808

0.086966,0.221673,12.548166,15.865294,0.140615,0.069027,0.059953,7.672000,24.776808

0.094152,0.624036,8.215575,15.879999,-0.126114,0.034120,0.084734,7.676000,24.776808

-2.827772,0.377349,12.234419,15.874117,-0.112791,-0.023969,0.118042,7.676000,81.302637

-1.335675,-0.278886,9.506492,15.874117,0.040158,-0.031696,0.106317,7.676000,1028.199846

-0.169301,-0.439352,8.720924,15.877058,0.020440,-0.034894,0.107383,7.672000,264.396488

0.489330,1.869447,8.593988,15.868235,0.114235,-0.020238,0.156412,7.676000,264.396488

1.370697,-0.211825,9.892090,15.859411,0.105975,0.046910,0.096991,7.680000,264.396488

-0.324977,0.262388,10.610596,15.877058,-0.197793,0.036785,0.070078,7.676000,264.396488

-2.746342,5.620048,6.524692,15.882940,0.022572,0.246757,0.082869,7.672000,264.396488

2.563417,-3.442707,10.986613,15.868235,0.294097,0.061299,0.065815,7.680000,264.396488

0.656981,-0.343551,8.364067,15.859411,-0.022460,-0.053813,-0.207842,7.680000,264.396488

1.976637,3.435789,8.589199,15.850588,0.162465,-0.080459,-0.128170,7.676000,264.396488

0.216298,0.861143,9.971126,15.862352,-0.066960,0.225973,-0.159346,7.676000,264.396488

1.466498,0.281549,9.142448,15.868235,-0.055235,-0.015975,-0.196118,7.680000,43.680996

-1.100963,-1.466816,8.876601,15.877058,0.014578,0.053838,-0.164142,7.680000,43.680996

-0.284262,0.609666,10.476475,15.877058,0.000722,-0.003984,-0.160412,7.680000,43.680996

-0.107030,-0.008249,7.470724,15.862352,0.157135,-0.001586,-0.086602,7.684000,43.680996

-2.461334,-1.656022,11.525493,15.888823,-0.109327,0.035719,-0.026648,7.680000,43.680996

-0.061525,0.549791,8.534113,15.877058,0.007384,-0.100710,-0.129769,7.680000,75.509199

-0.054340,1.105435,9.444221,15.879999,0.090253,-0.054079,-0.021318,7.680000,75.509199

0.697697,-0.458512,9.745994,15.879999,-0.069624,-0.089519,0.021582,7.684000,75.509199

-0.310607,-2.079941,8.313771,15.885881,-0.116788,-0.098845,-0.031177,7.684000,75.509199

-0.080685,-1.368620,8.577224,15.871176,0.019907,-0.200367,0.039169,7.688000,75.509199

0.285753,1.514984,8.138935,15.874117,-0.118387,0.050108,0.124170,7.688000,75.509199

-1.591942,1.074300,9.853769,15.868235,0.068137,-0.042888,0.036504,7.692000,75.509199

-0.358507,1.356912,9.317285,15.877058,0.074266,0.031189,0.058887,7.688000,75.509199

0.860558,-0.810580,10.081296,15.885881,0.007117,-0.053013,0.040767,7.684000,75.509199

-1.268615,1.194051,9.374765,15.885881,-0.009137,-0.086588,0.035705,7.688000,75.509199

-1.048273,2.461016,10.098062,15.877058,0.002854,-0.029032,0.036770,7.688000,75.509199

0.168397,2.381981,9.578342,15.879999,0.056946,-0.038891,0.068213,7.684000,75.509199

0.355209,2.892120,10.155541,15.877058,0.149941,-0.003451,0.087665,7.688000,75.509199

0.343234,0.966524,8.680209,15.868235,0.069736,-0.029298,0.067414,7.688000,75.509199

-0.339347,1.538934,8.699369,15.871176,0.055613,0.035186,0.073276,7.684000,75.509199

0.427059,0.959339,10.644126,15.865294,0.010315,-0.011179,0.098856,7.692000,75.509199

-1.017138,1.833521,10.579460,15.882940,0.005785,0.094607,0.126835,7.692000,75.509199

-1.196764,0.537816,10.167517,15.891764,-0.140503,-0.060741,0.087132,7.688000,75.509199

-0.286657,-0.554313,9.801079,15.853529,-0.105597,0.037318,0.156679,7.692000,75.509199

-0.827931,-0.987812,8.735295,15.882940,-0.003275,-0.029565,0.130832,7.688000,75.509199

-0.382457,-0.319601,7.983259,15.891764,0.096116,0.007474,0.126568,7.692000,75.509199

-0.643515,-1.200969,8.663445,15.862352,0.019108,-0.054346,0.088731,7.692000,75.509199

1.092875,0.659962,8.706554,15.882940,0.176854,0.007207,0.064749,7.692000,75.509199

0.982704,1.261111,9.216694,15.891764,0.112636,0.055703,0.084201,7.692000,75.509199

0.544415,1.548514,9.875324,15.885881,-0.021661,0.108729,0.045297,7.700000,75.509199

0.410294,3.292088,9.928015,15.871176,-0.022727,0.029590,-0.104988,7.692000,15.214624

-1.469796,-0.381872,13.558865,15.891764,-0.110126,0.183339,-0.062087,7.692000,15.214624

-0.516578,0.259993,8.886181,15.888823,-0.103731,0.117256,-0.141226,7.696000,15.214624

0.089361,0.916229,7.901828,15.877058,-0.122117,-0.000520,-0.140161,7.696000,15.214624

-0.511788,0.468360,10.064531,15.888823,-0.039514,0.064230,-0.156148,7.700000,15.214624

-0.739315,-0.099259,10.339958,15.882940,-0.033918,-0.013310,-0.200914,7.696000,15.214624

-0.059130,0.712652,9.868139,15.868235,-0.051771,0.019731,-0.161211,7.700000,15.214624

-0.629144,0.408485,8.981982,15.877058,-0.063495,-0.067136,-0.139628,7.700000,15.214624

0.125287,0.279154,7.818002,15.877058,0.028434,0.043180,-0.064752,7.700000,15.214624

-0.061525,2.142479,10.478869,15.879999,-0.183937,0.033321,0.032507,7.700000,15.214624

0.630636,2.326895,8.917316,15.891764,0.097981,-0.060474,-0.096727,7.696000,15.214624

1.619779,1.445528,10.917158,15.882940,0.038027,-0.015708,-0.037306,7.696000,15.214624

-0.150140,2.245465,10.189072,15.882940,-0.101600,0.158558,-0.063686,7.700000,15.214624

-0.375272,3.581886,10.088481,15.874117,-0.093872,0.002944,-0.040770,7.700000,15.214624

-0.392037,1.608389,11.824870,15.874117,0.100379,0.108197,-0.048231,7.700000,15.214624

-1.790729,0.482730,8.759245,15.882940,-0.006206,0.041314,-0.064219,7.700000,25.640682

-0.387247,-0.678854,10.129196,15.877058,0.019108,-0.136150,-0.006130,7.704000,25.640682

-0.140560,0.765343,6.704318,15.891764,0.128624,-0.027433,-0.010660,7.704000,25.640682

0.027091,-0.480068,9.159214,15.885881,0.147010,-0.119895,0.056489,7.708000,25.640682

0.108522,0.410880,10.035790,15.906469,0.000455,-0.128422,0.050360,7.704000,25.640682

-1.759594,0.758158,10.876443,15.874117,-0.122117,-0.046618,0.109781,7.704000,25.640682

0.017511,4.221356,8.538903,15.882940,0.111037,-0.083923,0.116176,7.704000,25.640682

1.238971,1.215606,8.277846,15.897646,-0.082947,-0.075929,0.162274,7.704000,25.640682

-0.334557,-0.333971,10.517190,15.894705,0.109172,-0.035160,0.184391,7.704000,25.640682

-1.831444,-0.575868,12.416440,15.888823,-0.097869,-0.031163,0.151616,7.704000,25.640682

-1.800309,0.523446,9.686118,15.891764,0.138750,-0.069001,0.183325,7.712000,25.640682

-1.098568,-0.786630,10.169911,15.859411,-0.147698,-0.060741,0.119907,7.708000,25.640682

2.726278,3.771092,9.681328,15.882940,0.133154,-0.188376,0.111380,7.708000,25.640682

2.285594,0.875513,10.589040,15.879999,0.019641,-0.097512,0.058620,7.708000,25.640682

1.979032,1.570069,8.134145,15.879999,-0.264675,-0.006649,0.262997,7.708000,25.640682

-1.206344,1.416788,8.855046,15.877058,-0.194062,0.098071,0.185457,7.712000,25.951978

-2.102081,0.216883,10.684841,15.885881,-0.048574,0.046111,0.120706,7.712000,25.951978

-3.127150,-1.090798,12.243999,15.874117,-0.296650,0.054371,0.100721,7.712000,25.951978

-1.199159,1.292247,11.020144,15.897646,0.091852,-0.047418,0.107383,7.716000,25.951978

1.294056,0.221673,10.541140,15.877058,0.090253,-0.058609,0.122305,7.716000,25.951978

-0.566874,0.087552,8.768826,15.879999,0.050018,0.095140,0.095659,7.712000,25.951978

-1.378785,-3.318166,9.944780,15.891764,-0.238028,-0.067136,0.083401,7.716000,25.951978

1.234181,-0.537548,11.039304,15.897646,-0.328093,-0.053280,0.070878,7.712000,25.951978

-1.421896,1.804781,10.004656,15.897646,-0.103198,0.130579,0.055689,7.712000,25.951978

-0.966842,-0.017829,9.599897,15.897646,-0.170880,0.193731,-0.057291,7.716000,25.951978

1.571879,2.710098,6.438471,15.885881,0.203233,0.022929,-0.172935,7.720000,25.951978

-1.268615,0.806058,13.304993,15.879999,0.178452,-0.033561,-0.159612,7.712000,25.951978

2.091598,2.853800,8.874207,15.888823,-0.044577,0.145501,-0.094596,7.720000,25.951978

-1.920060,-0.779445,11.305151,15.882940,-0.176742,0.170282,-0.088467,7.716000,25.951978

-3.136730,1.316197,8.675420,15.891764,-0.236430,0.074356,-0.139095,7.720000,25.951978

-1.843419,-1.964980,11.084809,15.900587,-0.150362,0.026926,-0.142559,7.720000,26.518166

0.891693,-0.331576,10.591435,15.877058,-0.292920,-0.055145,-0.121775,7.716000,26.518166

-0.547714,1.040770,10.002260,15.874117,-0.078684,-0.058342,-0.225429,7.720000,26.518166

-2.559530,0.178563,8.979588,15.888823,-0.066693,0.075955,-0.110850,7.720000,26.518166

-2.054181,1.570069,12.141013,15.897646,0.186713,-0.052214,-0.199582,7.724000,26.518166

-0.974027,0.710257,8.857441,15.882940,-0.017131,0.174013,-0.019720,7.724000,26.518166

0.771942,2.329290,8.493398,15.888823,0.149408,-0.173987,-0.091132,7.724000,26.518166

2.898720,1.400023,9.781919,15.897646,0.265319,-0.106572,0.003729,7.724000,26.518166

0.664166,-1.483581,9.916039,15.879999,-0.039780,0.007207,-0.066350,7.724000,26.518166

-1.182394,-0.908776,8.553273,15.903528,-0.273468,0.006941,0.043166,7.724000,26.518166

-1.086593,0.566556,12.167358,15.900587,-0.046708,-0.130554,-0.064485,7.724000,26.518166

-0.408803,4.470438,13.436718,15.894705,0.284238,-0.020505,-0.075144,7.728000,26.518166

1.095270,6.043966,9.860954,15.888823,0.028967,0.029857,0.004529,7.732000,26.518166

0.359999,1.641920,13.376842,15.909410,-0.141835,0.029324,-0.114847,7.732000,26.518166

-0.650700,0.274364,10.102851,15.894705,-0.316368,0.089278,-0.157481,7.732000,26.892406

1.001864,1.047955,11.566208,15.885881,-0.074154,-0.127889,-0.132167,7.724000,26.892406

-1.136889,0.597691,9.540022,15.897646,-0.236963,0.039716,-0.115380,7.728000,26.892406

0.671351,4.827296,10.632151,15.885881,0.183249,0.005609,-0.061821,7.728000,26.892406

-0.138165,0.580926,10.308823,15.868235,0.140881,0.047443,0.006927,7.736000,26.892406

-0.993187,0.415670,8.572433,15.885881,0.017509,-0.110569,-0.038638,7.732000,26.892406

-0.614774,-0.817765,6.898314,15.885881,0.038027,-0.095381,0.036504,7.732000,26.892406

1.447338,-0.556708,11.137500,15.891764,0.149674,-0.243001,-0.021585,7.732000,26.892406

-1.230294,1.876631,8.182045,15.894705,0.017776,0.074889,0.066081,7.736000,26.892406

-2.518815,0.295919,9.465776,15.903528,0.133420,0.175878,0.189187,7.736000,26.892406

-2.566715,-0.949491,9.987890,15.882940,-0.123982,-0.081791,0.063150,7.736000,26.892406

1.545533,-0.266911,10.042975,15.903528,0.087855,-0.127889,0.015986,7.732000,26.892406

-0.078290,3.062166,10.799802,15.900587,0.054281,0.019198,0.065815,7.736000,26.892406

-1.426686,0.027677,10.189072,15.888823,-0.054969,-0.093249,0.110847,7.736000,26.892406

-0.253126,1.304222,9.310100,15.891764,-0.103731,-0.129754,0.134296,7.736000,27.193917

-0.030389,-1.735058,9.707673,15.897646,-0.177009,-0.245399,0.134029,7.732000,27.193917

-2.801427,-1.598542,12.905025,15.906469,-0.123716,-0.070333,0.182792,7.736000,27.193917

-0.092660,3.498060,10.608200,15.885881,0.016710,-0.066603,0.104185,7.736000,27.193917

0.419874,0.762947,9.449011,15.900587,-0.117321,0.009872,0.293374,7.736000,27.193917

0.012721,0.221673,8.958032,15.903528,-0.258812,0.012270,0.217432,7.736000,27.193917

-3.199000,0.334239,8.524533,15.894705,0.006051,0.315504,0.236884,7.736000,27.193917

-0.332162,2.144874,10.292058,15.897646,-0.018197,0.201725,0.215034,7.736000,27.193917

-1.857789,0.830008,11.171030,15.912352,-0.084280,0.065296,0.044231,7.740000,27.193917

0.314493,4.547079,10.136381,15.921175,-0.079750,0.112993,0.050094,7.740000,27.193917

-0.782426,0.501890,12.287109,15.900587,-0.125581,0.197461,-0.019986,7.732000,27.193917

0.573155,-0.633349,9.470566,15.906469,-0.133309,0.106065,-0.138029,7.736000,27.193917

-2.269733,-0.305231,7.973679,15.900587,-0.015532,0.092209,-0.146023,7.736000,27.193917

-2.308053,-0.626164,7.748547,15.906469,0.133687,0.059700,-0.281386,7.736000,27.193917

-0.806376,0.482730,7.930568,15.900587,-0.072289,0.135109,-0.232090,7.736000,27.169122

-1.438661,1.955667,10.682446,15.909410,0.182183,0.263278,-0.232890,7.736000,27.169122

-0.164511,0.892279,8.950847,15.906469,0.125426,0.048509,-0.226494,7.736000,27.169122

-0.126190,0.461175,8.728109,15.885881,0.128890,0.026659,-0.078608,7.736000,27.169122

-0.370482,0.025282,8.876601,15.900587,0.151007,-0.052480,-0.033309,7.740000,27.169122

-1.843419,-1.030922,9.837004,15.912352,0.141681,-0.019972,-0.020519,7.740000,27.169122

-0.083080,-0.844111,7.786867,15.915293,0.237874,-0.053280,0.081536,7.736000,27.169122

0.031881,-0.151950,10.660891,15.903528,0.056946,-0.010379,0.025579,7.736000,27.169122

-2.588270,0.439620,10.105247,15.912352,-0.085878,0.003743,-0.029312,7.740000,27.169122

1.801800,0.683912,9.712463,15.903528,-0.188466,-0.000520,0.015453,7.744000,27.169122

-2.255363,1.718560,10.763877,15.912352,-0.287058,0.073823,-0.043701,7.740000,27.169122

0.640216,0.755763,10.385464,15.903528,-0.009137,-0.247797,-0.124706,7.740000,27.169122

2.379000,1.112620,8.567643,15.906469,0.196838,-0.075929,-0.127637,7.744000,27.169122

-1.867369,0.925809,10.052556,15.897646,-0.052571,0.056769,-0.014657,7.740000,27.169122

-0.186066,1.165311,9.755573,15.912352,-0.085878,-0.029565,-0.007462,7.744000,26.973584

-0.851881,1.433553,9.750783,15.915293,0.009782,-0.037825,-0.041037,7.740000,26.973584

-0.792006,0.087552,11.970966,15.903528,-0.105597,-0.095381,-0.020785,7.744000,26.973584

1.507213,2.585557,9.312495,15.929998,-0.119719,-0.141479,-0.047698,7.744000,26.973584

-1.045878,1.641920,9.808264,15.912352,-0.166350,0.085547,0.050360,7.740000,26.973584

-2.375113,1.007240,11.906301,15.915293,-0.112258,-0.004517,-0.044501,7.748000,26.973584

-0.078290,1.265902,10.735136,15.915293,0.091053,-0.051414,-0.080473,7.744000,26.973584

1.061739,0.676727,8.150910,15.915293,0.061742,-0.099378,-0.069282,7.748000,26.973584

-0.027994,-0.302836,9.065807,15.909410,0.151273,-0.058875,-0.077808,7.744000,26.973584

-0.109425,-0.240566,9.868139,15.924116,0.066272,-0.095114,-0.062886,7.744000,26.973584

-0.061525,3.565120,9.386741,15.912352,0.182982,-0.007182,0.032241,7.744000,26.973584

2.855609,1.553304,9.937595,15.900587,0.054014,-0.051947,0.023181,7.744000,26.973584

-1.136889,-1.062057,9.654983,15.927057,-0.198858,0.079685,0.025846,7.744000,26.973584

-1.182394,-0.812975,8.651469,15.918234,-0.183670,-0.173987,0.039702,7.744000,26.973584

-1.465006,-0.618979,8.799960,15.918234,0.014578,-0.123626,-0.001067,7.744000,26.973584

0.316888,0.410880,9.604687,15.903528,0.071601,-0.128689,0.095925,7.744000,27.039714

-0.382457,2.010753,8.878996,15.906469,0.036694,0.025593,0.120973,7.748000,27.039714

-1.864974,0.525841,11.278806,15.921175,0.067338,-0.025568,0.141757,7.748000,27.039714

-0.071105,0.259993,7.046806,15.909410,-0.016865,-0.162529,0.099922,7.748000,27.039714

-2.274523,0.248018,10.615385,15.912352,-0.121051,0.002411,0.208372,7.748000,27.039714

-0.207621,0.688702,9.190349,15.918234,-0.053636,-0.053280,0.175065,7.744000,27.039714

-1.141679,-1.102773,11.867981,15.921175,-0.038448,0.069027,0.246210,7.752000,27.039714

-1.302145,1.155731,7.691066,15.906469,-0.074154,-0.113500,0.182525,7.752000,27.039714

-0.741710,0.645592,10.296848,15.918234,0.087589,-0.056211,0.185989,7.752000,27.039714

-0.691415,4.314762,9.978311,15.909410,0.036428,0.123651,0.178262,7.748000,27.039714

1.591039,3.004686,10.138777,15.921175,0.070269,0.026393,0.107650,7.748000,27.039714

0.621056,1.186866,12.540981,15.912352,0.006318,0.121253,0.041567,7.752000,27.039714

0.482145,2.779554,9.286150,15.912352,-0.007272,0.122586,0.011190,7.752000,27.039714

0.280963,1.064720,9.575947,15.932940,0.007117,0.027458,-0.048231,7.752000,27.039714

0.506095,0.968919,11.470407,15.921175,-0.016065,0.122586,-0.131367,7.748000,27.256210

-1.517697,2.180799,10.105247,15.921175,-0.057900,0.273936,-0.100458,7.748000,27.256210

-0.370482,1.594019,9.072993,15.924116,0.068403,0.107131,-0.147355,7.752000,27.256210

-0.782426,-0.001064,9.298124,15.924116,-0.002209,0.162555,-0.069015,7.756000,27.256210

-0.435148,0.097132,10.823752,15.918234,-0.084280,-0.041022,-0.133233,7.752000,27.256210

-0.396827,-0.918356,10.442944,15.918234,-0.136506,0.051973,-0.134565,7.756000,27.256210

-1.316515,0.274364,9.853769,15.906469,-0.064828,0.070625,-0.116445,7.756000,27.256210

-1.268615,-0.671669,9.784313,15.900587,-0.078950,-0.119362,-0.083404,7.752000,27.256210

-0.885411,-0.762680,10.476475,15.921175,-0.167682,0.003210,-0.047965,7.752000,27.256210

-2.070946,-1.639257,8.586803,15.921175,0.020174,0.091676,0.002397,7.756000,27.256210

0.043856,2.532867,9.578342,15.912352,0.115034,0.104999,-0.019720,7.756000,27.256210

1.581459,0.877909,9.180769,15.909410,0.070802,-0.107638,-0.120442,7.752000,27.256210

0.659376,0.252808,7.863508,15.897646,-0.108261,0.021063,-0.082338,7.752000,27.256210

-0.162116,1.186866,9.638218,15.918234,0.112636,0.075422,-0.071680,7.756000,27.256210

-0.878226,3.260953,9.801079,15.915293,0.252795,0.123385,-0.063153,7.756000,27.460388

-0.123795,0.487520,10.584250,15.924116,0.225616,-0.066603,-0.099392,7.760000,27.460388

0.355209,1.368887,11.082415,15.921175,-0.032852,0.052772,-0.086069,7.756000,27.460388

-0.277076,-0.171110,8.421547,15.912352,-0.139171,-0.089519,-0.089533,7.760000,27.460388

-0.435148,-0.341156,9.058622,15.924116,0.019108,-0.023969,-0.089266,7.756000,27.460388

-2.545160,-0.805790,9.635822,15.915293,-0.060031,0.087146,-0.035174,7.756000,27.460388

1.677259,0.983289,9.386741,15.906469,0.292498,-0.055145,-0.058890,7.760000,27.460388

-0.025599,1.850286,9.573552,15.924116,0.123828,-0.043421,-0.056758,7.760000,27.460388

0.027091,-0.154345,9.437036,15.912352,-0.066160,-0.012511,-0.050629,7.764000,27.460388

-1.553622,-0.305231,10.660891,15.921175,-0.158889,-0.049549,-0.046632,7.760000,27.460388

-2.195487,1.972432,8.253896,15.938822,-0.099734,0.070359,0.077006,7.764000,27.460388

-2.806217,-3.176860,13.170872,15.912352,-0.228169,-0.010646,-0.009061,7.764000,27.460388

-1.785939,3.081326,8.349697,15.921175,0.014844,-0.106839,-0.092197,7.760000,27.460388

0.067806,1.335357,10.773457,15.929998,0.035096,-0.086321,0.086865,7.760000,27.460388

-2.142797,-0.154345,10.689631,15.935881,-0.212981,0.022129,0.026911,7.760000,27.460388

-2.372719,-3.025973,9.293335,15.921175,-0.210583,-0.051947,0.094326,7.764000,27.658885

0.975519,1.450318,9.786709,15.903528,0.075065,0.078086,0.096458,7.760000,27.658885

-1.644633,-0.513598,8.708950,15.909410,-0.047508,-0.046885,0.089530,7.764000,27.658885

-1.584757,-0.556708,10.732741,15.924116,-0.050439,-0.025035,0.091395,7.764000,27.658885

-1.599127,0.202513,10.337564,15.935881,-0.255615,-0.007715,0.101254,7.764000,27.658885

-0.008834,-0.089679,10.773457,15.909410,0.132621,-0.011978,0.110581,7.764000,27.658885

-0.765660,-1.670392,10.227392,15.927057,-0.000077,0.065829,0.111380,7.764000,27.658885

-1.860184,-0.369897,9.774734,15.932940,0.006051,0.087146,0.138293,7.764000,27.658885

0.098942,0.200118,8.110195,15.927057,-0.040313,-0.039424,0.135895,7.760000,27.658885

1.203046,-1.224919,8.910131,15.900587,-0.236163,-0.126823,0.194516,7.756000,27.658885

-0.993187,-1.356645,11.297966,15.912352,0.004985,0.070092,0.082869,7.760000,27.658885

-2.097291,-0.954281,8.766430,15.918234,-0.096803,0.078353,0.101787,7.760000,27.658885

1.119220,2.683753,10.347143,15.935881,0.231745,0.117523,-0.168139,7.760000,27.291244

0.472565,0.094737,10.074111,15.924116,-0.011002,0.249155,-0.173468,7.756000,27.291244

0.611476,0.391720,9.444221,15.932940,-0.134375,0.181474,-0.300305,7.756000,27.291244

0.125287,0.145033,9.820239,15.932940,-0.053903,0.120987,-0.336011,7.756000,27.291244

-0.746500,1.083880,10.826147,15.935881,0.026835,0.046910,-0.296574,7.760000,27.291244

1.229391,2.084998,8.953242,15.918234,0.186180,-0.026633,-0.336277,7.752000,27.291244

-0.181276,0.245623,9.271779,15.924116,0.074799,0.125783,-0.199582,7.756000,27.291244

0.031881,-0.470488,9.396320,15.935881,0.127825,0.028791,-0.240084,7.756000,27.291244

1.124010,-0.171110,10.574670,15.932940,0.094783,-0.065004,-0.241683,7.752000,27.291244

-0.763265,-2.254777,11.561419,15.938822,-0.161820,-0.116431,-0.203312,7.748000,27.291244

-1.460216,-1.615307,9.999866,15.950586,-0.141569,0.065296,-0.103922,7.752000,27.291244

-1.809889,0.655172,8.993958,15.932940,-0.322231,-0.036226,-0.050629,7.748000,27.291244

-2.023046,0.784503,10.680051,15.944704,0.086523,0.053838,-0.074877,7.740000,27.291244

0.063016,-0.781840,10.488449,15.956469,-0.038448,-0.182248,-0.040770,7.744000,27.291244

-0.274681,0.204908,6.541457,15.944704,0.038826,-0.070067,0.042633,7.748000,27.291244

-0.619564,-2.827187,10.754296,15.938822,0.071867,-0.163329,0.036504,7.744000,27.291244

-1.230294,1.546119,7.628796,15.929998,0.011647,-0.068468,-0.011193,7.740000,25.516153

-0.617169,0.351004,10.902788,15.944704,0.131289,0.001079,0.079937,7.744000,25.516153

-0.995582,0.894674,8.742480,15.924116,0.140082,0.041581,-0.005331,7.740000,25.516153

-0.071105,1.883817,6.859994,15.929998,0.078529,-0.016774,0.063683,7.740000,25.516153

-0.073500,-2.530204,11.372211,15.924116,-0.095471,-0.212091,0.053291,7.736000,25.516153

0.024696,3.529195,9.793894,15.924116,0.026835,-0.036226,-0.011193,7.744000,25.516153

-0.336952,3.818992,12.229629,15.924116,-0.117587,0.018399,0.069279,7.740000,25.516153

-0.995582,3.241793,10.167517,15.918234,0.317279,0.143370,0.135895,7.736000,25.516153

1.195861,-1.200969,9.846584,15.944704,-0.005673,-0.068735,0.072476,7.736000,25.516153

0.733622,-1.656022,9.640613,15.918234,-0.102932,-0.032229,0.089797,7.732000,25.516153

-0.902177,-0.796210,10.464499,15.924116,-0.159955,-0.053813,-0.052494,7.736000,25.516153

-1.692533,-2.671510,8.352092,15.947645,-0.171679,-0.019173,0.011723,7.724000,25.516153

-0.116610,-1.969770,11.353051,15.935881,-0.091208,-0.144410,-0.167340,7.728000,25.516153

-0.578849,0.305499,9.616662,15.935881,0.093184,0.014935,-0.193986,7.724000,25.516153

-0.008834,-0.070519,9.702883,15.924116,-0.156757,-0.137482,-0.106586,7.732000,25.516153

0.781522,-2.309863,9.039463,15.941763,-0.070157,-0.058076,-0.216102,7.724000,25.516153

-3.158285,0.825218,9.678933,15.929998,0.044422,-0.072199,-0.231557,7.728000,23.654879

-0.571664,-2.479909,12.564931,15.944704,0.018575,-0.232076,-0.027447,7.724000,23.654879

-0.851881,-0.887221,10.229787,15.932940,-0.109594,-0.049283,0.071144,7.724000,23.654879

-2.760712,-0.571078,8.143725,15.938822,-0.066960,-0.197436,0.227291,7.728000,23.654879

-1.373995,2.415511,10.708791,15.924116,-0.143168,-0.132153,0.405288,7.724000,23.654879

-1.936825,0.674332,11.393766,15.944704,-0.112791,-0.120428,0.423674,7.724000,23.654879

2.599342,0.552186,10.893208,15.935881,-0.053636,-0.203565,0.499616,7.724000,23.654879

-1.294960,-2.357763,9.858560,15.944704,0.120364,-0.144410,0.595276,7.720000,23.654879

-0.918942,0.300709,8.804750,15.915293,0.063341,-0.160131,0.456982,7.716000,23.654879

1.492843,-1.701528,11.194981,15.927057,-0.027257,-0.082857,0.302167,7.716000,23.654879

-0.142955,-0.877641,9.913645,15.932940,0.007650,0.073290,0.106584,7.720000,23.654879

0.908458,-1.361435,9.209509,15.927057,-0.043777,0.051707,-0.002932,7.720000,23.654879

0.434244,1.354517,7.015671,15.924116,-0.151162,0.185204,0.088198,7.712000,23.654879

-0.404013,1.167706,11.135105,15.912352,0.204299,0.193731,-0.139095,7.712000,23.654879

-0.875831,1.541329,10.416599,15.947645,0.240538,0.205455,-0.472173,7.712000,23.654879

1.442548,2.911280,11.180610,15.929998,-0.078950,0.190800,-0.233156,7.712000,25.268390

-0.205226,1.455108,9.324470,15.927057,0.086789,0.332025,-0.370118,7.716000,1308.256969

-0.689020,1.570069,9.813054,15.947645,0.046820,0.263544,-0.294709,7.716000,1261.890181

0.022301,-1.131513,10.165122,15.918234,0.005785,0.067428,-0.342939,7.712000,2520.573542

-1.668583,1.663475,9.777128,15.932940,0.073466,0.082616,-0.368519,7.716000,1271.596984

-0.313002,0.365374,9.520862,15.947645,-0.028589,0.006941,-0.241683,7.708000,2627.405686

-0.071105,0.827613,9.187954,15.921175,-0.020595,-0.054612,-0.159879,7.712000,2587.262905

-0.638724,0.164193,8.359277,15.924116,0.000722,-0.077261,-0.031977,7.708000,2604.734408

-1.244664,0.200118,9.851375,15.929998,0.032431,-0.016508,0.053558,7.708000,2771.624673

0.302518,1.402418,10.110036,15.944704,0.039892,-0.096713,0.153481,7.704000,2584.373694

-2.569110,2.204749,10.567485,15.935881,-0.098136,0.069826,0.333343,7.712000,2695.755985

-1.541647,3.035821,8.661049,15.932940,0.278909,-0.033029,0.074342,7.704000,2750.760529

0.098942,0.221673,9.243039,15.947645,0.181916,0.099137,0.094326,7.716000,2499.701135

-0.090265,-1.248869,8.816726,15.932940,0.061475,-0.051947,-0.031710,7.712000,2642.908178

-0.516578,-2.022460,9.540022,15.924116,-0.241226,-0.092716,0.100189,7.708000,2694.709716

-0.490233,-0.216615,8.289822,15.912352,-0.092540,0.004276,-0.163343,7.716000,2643.914613

-1.647028,1.692215,9.487331,15.929998,0.048152,0.067694,-0.279787,7.708000,2630.890494

-1.381181,1.153336,9.803473,15.941763,0.074799,0.173213,-0.315493,7.708000,1664.968753

-0.521369,-0.760285,7.827582,15.932940,-0.047508,-0.037825,-0.302170,7.708000,1807.110776

-0.317792,-1.538666,10.275292,15.944704,0.048952,-0.130554,-0.117245,7.712000,1761.268287

-2.128427,0.449200,8.766430,15.927057,-0.167949,-0.104707,-0.171603,7.708000,2501.953007

-0.056735,1.342542,10.572275,15.935881,0.168327,-0.276042,-0.033842,7.712000,445.801958

0.755177,3.603441,6.242079,15.927057,0.220820,-0.041022,0.156679,7.708000,445.801958

1.260526,-0.477673,9.678933,15.924116,0.192042,-0.310150,0.304565,7.704000,445.801958

0.395924,-0.513598,10.124407,15.947645,-0.021128,-0.189442,0.357325,7.704000,445.801958

-0.796796,0.990474,11.460827,15.932940,-0.135174,-0.196903,0.475368,7.708000,1794.731834

-2.209857,2.480176,11.238091,15.929998,-0.206053,0.087146,0.518801,7.708000,2599.370850

-2.760712,0.990474,9.355605,15.944704,-0.020861,-0.008780,0.503346,7.708000,666.915085

-0.404013,1.383258,8.471843,15.932940,-0.066693,0.023728,0.393031,7.704000,1788.260138

0.142052,3.078931,11.556628,15.953527,0.006318,-0.016774,0.279251,7.704000,2537.616833

-0.741710,6.403219,12.028447,15.935881,0.326872,0.189468,-0.015723,7.712000,1061.365064

1.401832,3.452554,8.155700,15.935881,0.089720,0.343749,0.103386,7.708000,1061.365064

0.405504,-1.713503,10.512400,15.938822,-0.165817,0.120720,0.039968,7.700000,240.389168

-1.223109,0.573741,8.191626,15.950586,-0.243624,0.169216,-0.155349,7.700000,240.389168

-1.647028,-0.894406,11.932646,15.953527,0.063607,0.054105,0.055423,7.708000,240.389168

-2.023046,4.966207,8.859837,15.938822,-0.049639,0.129780,0.000265,7.708000,240.389168

1.327587,1.498219,11.010564,15.938822,0.329270,0.187336,0.175065,7.704000,240.389168

-1.407526,-1.186598,10.871653,15.944704,-0.289189,-0.028232,-0.056491,7.700000,68.346253

2.565812,3.165152,7.815607,15.950586,-0.029921,-0.006116,0.126035,7.704000,68.346253

1.447338,0.461175,9.944780,15.935881,-0.050972,0.111661,0.192118,7.704000,68.346253

-0.365692,0.820428,9.650192,15.944704,0.089987,0.062099,-0.023450,7.704000,68.346253

-0.188461,4.748260,6.304350,15.956469,0.092119,0.091409,0.008259,7.700000,68.346253

-0.231571,-4.290544,14.770744,15.941763,-0.197526,-0.102042,0.075940,7.700000,68.346253

-1.512907,2.738839,4.373964,15.953527,-0.005673,0.180941,-0.223563,7.700000,68.346253

-0.404013,-1.141093,11.080019,15.950586,-0.064028,-0.103908,0.150550,7.700000,68.346253

0.027091,2.626273,9.369975,15.944704,0.234676,0.009605,-0.188390,7.700000,68.346253

-4.149823,-0.865666,13.067885,15.947645,-0.011802,0.138573,0.043699,7.692000,68.346253

-1.287775,0.808453,11.489568,15.941763,-0.143168,0.064230,-0.344804,7.692000,68.346253

0.357604,2.068233,9.537626,15.959410,-0.126647,0.087412,-0.278455,7.680000,68.346253

2.117943,5.392520,10.450130,15.968235,0.341794,0.110861,-0.287248,7.676000,68.346253

1.217416,0.600086,11.626083,15.968235,0.099580,0.175079,-0.261135,7.684000,68.346253

-0.274681,2.899305,7.988049,15.944704,0.126492,0.002144,-0.212105,7.684000,68.346253

-1.829049,1.732930,11.642849,15.959410,0.038826,-0.091384,-0.049830,7.680000,68.346253

-0.219596,-2.190112,9.063413,15.938822,-0.198592,-0.076995,0.280051,7.688000,68.346253

-3.345096,0.777318,11.238091,15.962351,-0.070157,-0.010912,0.154280,7.684000,68.346253

-1.721273,0.638407,10.404624,15.947645,-0.134907,-0.107105,0.307230,7.684000,68.346253

-1.934430,0.830008,9.226274,15.932940,-0.102665,-0.020771,0.447656,7.680000,20.538083

-2.372719,2.805899,9.386741,15.959410,0.035629,-0.021038,0.526529,7.680000,20.538083

1.054554,-2.403268,11.731464,15.950586,-0.002476,0.000546,0.408486,7.680000,20.538083

0.882113,4.216566,10.294453,15.956469,0.019374,0.111661,0.418078,7.672000,20.538083

-1.179999,-0.362712,10.854887,15.947645,-0.131443,0.074622,0.414081,7.676000,20.538083

-1.211134,2.159244,10.122011,15.941763,-0.045376,0.284328,0.071411,7.676000,20.538083

-0.933312,-1.950610,10.890813,15.932940,-0.127713,0.246757,-0.055692,7.680000,20.538083

0.592316,0.370164,8.704160,15.956469,-0.244424,0.126582,-0.337076,7.672000,20.538083

-2.372719,2.664593,8.766430,15.944704,-0.049373,0.294987,-0.288847,7.664000,20.538083

0.611476,-0.123210,10.074111,15.959410,-0.010469,0.286193,-0.381043,7.672000,20.538083

-0.720155,0.717442,10.203442,15.941763,0.040691,0.344016,-0.559040,7.668000,20.538083

-0.789611,0.437225,8.584409,15.941763,0.043622,0.120987,-0.685343,7.664000,20.538083

1.040184,0.559371,11.508728,15.959410,0.162465,0.149232,-0.908105,7.656000,20.538083

0.733622,4.024964,8.167675,15.938822,0.030299,0.131912,-0.745030,7.660000,20.538083

-0.061525,-0.329181,11.496753,15.950586,0.131289,0.107131,-0.686142,7.660000,20.538083

-1.350045,1.256322,11.159055,15.947645,0.362312,0.037318,-0.897180,7.668000,20.538083

0.956359,-2.285912,9.844189,15.947645,-0.315569,-0.149206,-0.523867,7.656000,20.538083

-3.119965,-0.954281,12.993640,15.950586,-0.146632,-0.115099,-0.559306,7.660000,20.538083

