ax,ay,az,gx,gy,gz,temp,volt,vel

-0.020809,0.032467,9.760364,16.897646,-0.001676,-0.003984,-0.000268,3.976000,0.000000

-0.111820,0.039652,9.750783,16.915293,-0.003275,-0.005849,0.001864,3.764000,0.000000

0.005536,0.056417,9.753179,16.918234,-0.005140,-0.006915,0.002130,3.628000,0.000000

0.017511,0.037257,9.765154,16.924116,-0.002209,-0.007715,0.006660,3.496000,0.000000

-0.027994,0.010911,9.760364,16.932940,-0.003541,-0.004251,0.000265,3.368000,0.000000

0.024696,0.054022,9.753179,16.929998,-0.004074,-0.006382,-0.002666,3.272000,0.000000

-0.011229,0.058812,9.743598,16.938822,-0.003275,-0.004784,-0.003465,3.204000,0.000000

-0.016019,0.070787,9.769943,16.953527,-0.004874,-0.005583,0.000532,3.148000,0.000000

0.103732,0.003726,9.755573,16.956469,-0.003808,-0.004517,0.002130,3.092000,0.000000

0.046251,-0.005854,9.722043,16.950586,-0.002476,0.000546,-0.000534,3.036000,0.000000

0.015116,0.022887,9.753179,16.962351,-0.003009,0.000279,-0.009328,2.984000,0.000000

0.005536,0.034862,9.719648,16.971176,-0.004607,0.001612,-0.012259,2.920000,0.000000

-0.004044,0.003726,9.745994,16.982941,-0.005407,0.001878,-0.008528,2.868000,0.000000

-0.068710,-0.058544,9.829819,16.974117,-0.004874,0.002677,-0.007462,2.812000,0.000000

-0.004044,0.065997,9.710068,16.982941,-0.003541,0.000812,-0.001067,2.764000,0.000000

0.048646,0.118687,9.743598,16.985882,-0.000610,-0.001320,0.001331,2.712000,0.000000

0.019906,0.065997,9.734018,16.988823,-0.003541,0.004010,0.005861,2.664000,0.000000

0.024696,-0.003459,9.781919,16.991764,-0.003808,0.003477,0.000532,2.612000,0.000000

0.077386,0.044442,9.738809,17.000587,-0.001143,0.003743,-0.006130,2.556000,0.000000

-0.016019,0.054022,9.743598,16.994705,-0.004074,0.007740,-0.007729,2.508000,0.000000

-0.068710,0.010911,9.724438,17.006470,-0.003541,0.007740,-0.010926,2.460000,0.000000

-0.159721,0.056417,9.856164,17.012352,-0.005407,0.004809,-0.006396,2.404000,0.000000

-0.109425,0.154613,9.760364,17.012352,-0.005940,-0.001053,-0.001600,2.356000,0.000000

-0.049550,0.101922,9.767549,17.027058,-0.004874,-0.002119,0.004529,2.308000,0.000000

-0.013624,0.010911,9.760364,17.015293,-0.003275,-0.003451,-0.006130,2.264000,0.000000

-0.016019,-0.003459,9.755573,17.032940,-0.000344,-0.002385,-0.003998,2.220000,0.000000

-0.073500,0.015701,9.745994,17.047646,-0.001143,-0.002385,0.008259,2.176000,0.000000

-0.176486,0.058812,9.748388,17.018234,0.000455,-0.005050,0.010391,2.132000,0.000000

-0.245941,0.106712,9.724438,17.050587,-0.000610,-0.011179,-0.002932,2.092000,0.000000

-0.301027,0.152218,9.750783,17.038822,-0.004074,-0.016774,-0.018920,2.052000,0.000000

-0.274681,0.044442,9.731624,17.050587,-0.008338,-0.028765,-0.033043,2.008000,0.000000

-0.039970,-0.080099,9.757969,17.065292,-0.005940,-0.035693,-0.048231,1.956000,0.000000

0.058226,-0.020224,9.719648,17.056469,-0.003808,-0.031430,-0.057291,1.920000,0.000000

0.149237,0.039652,9.535232,17.059410,-0.006739,-0.029565,-0.070347,1.876000,0.000000

-0.013624,1.196446,9.683722,17.062351,-0.009137,-0.014376,-0.040237,1.804000,0.000000

-0.107030,1.455108,9.803473,17.059410,-0.020329,-0.016774,-0.049830,1.760000,0.000000

-0.123795,1.043165,9.683722,17.074116,-0.012868,-0.013577,-0.102056,1.720000,0.000000

-0.375272,0.331844,9.568762,17.065292,-0.013667,0.012537,-0.238752,1.684000,0.000000

-0.291447,0.075577,9.700488,17.082939,-0.089342,0.008806,-0.344271,1.652000,0.000000

-0.789611,0.954549,9.049043,17.100588,-0.046708,0.045311,-0.363989,1.616000,0.000000

-1.747618,0.394115,10.392649,17.082939,-0.019529,-0.035960,-0.357328,1.584000,0.000000

-0.562084,-0.202245,9.099339,17.091763,-0.053103,-0.064205,-0.329615,1.536000,0.000000

-0.437543,-0.520783,9.489726,17.097647,-0.101067,-0.121494,-0.329882,1.504000,0.000000

0.223483,0.358189,10.210628,17.074116,-0.035250,-0.126024,-0.306700,1.472000,0.000000

-0.277076,2.084998,9.796288,17.082939,0.055347,-0.152404,-0.252874,1.440000,0.000000

0.019906,-0.178295,10.775852,17.103529,0.159001,-0.225148,-0.180663,1.416000,0.000000

-0.008834,-0.417797,10.263317,17.082939,0.184848,-0.201433,-0.259003,1.388000,0.000000

1.224601,1.150941,9.420271,17.097647,0.047619,-0.144143,-0.296041,1.344000,0.000000

0.630636,1.706585,10.260922,17.094706,0.087855,-0.157999,-0.334145,1.312000,0.000000

0.625846,1.256322,10.804592,17.106470,0.144345,-0.180382,-0.292311,1.280000,0.000000

0.769547,0.470755,10.165122,17.121176,0.136351,-0.134817,-0.279787,1.256000,0.000000

0.407899,1.126991,10.198652,17.129999,0.143013,-0.096180,-0.178531,1.232000,0.000000

0.546810,0.458780,10.169911,17.129999,0.098247,-0.097779,-0.108984,1.304000,0.000000

1.361117,1.294642,9.108918,17.124117,0.124893,-0.121761,-0.044767,1.380000,0.000000

1.224601,1.457503,8.287426,17.112352,0.038027,-0.048483,0.042100,1.476000,0.000000

0.946778,1.388048,9.125683,17.115294,0.033230,-0.084456,0.096991,2.448000,0.000000

0.532440,2.662198,9.360395,17.109411,0.043356,-0.053280,0.079138,3.032000,0.000000

0.807867,1.316197,8.692184,17.132940,-0.071223,-0.105773,0.030908,3.520000,0.000000

0.570760,1.888607,8.467052,17.124117,0.058278,-0.045552,-0.002133,4.892000,0.000000

0.649796,0.281549,12.160173,17.141764,-0.121318,-0.129754,0.007460,4.860000,0.000000

1.092875,0.137847,8.301796,17.144705,-0.012868,-0.018373,0.014388,4.860000,0.000000

0.795892,3.265743,11.549443,17.144705,-0.134108,-0.069534,0.041034,5.360000,0.000000

2.879559,-0.329181,9.880115,17.150587,0.026569,0.011204,0.066081,5.200000,0.000000

-0.073500,1.924532,9.202324,17.121176,0.184315,-0.003718,0.043166,5.324000,0.000000

1.483263,-3.322956,9.779524,17.150587,-0.133842,-0.057010,0.027178,5.300000,0.000000

-0.336952,1.337752,10.007051,17.135881,0.200835,0.033321,0.043166,5.688000,0.000000

0.448614,-0.242961,7.956913,17.144705,-0.094938,-0.103641,0.062351,5.612000,0.000000

0.029486,2.429881,8.965217,17.150587,-0.056567,0.008540,0.026378,5.608000,0.000000

2.690353,0.037257,10.536350,17.150587,-0.171413,-0.095381,0.157744,5.572000,0.000000

3.004100,1.378468,9.755573,17.132940,-0.018730,0.078353,0.220896,5.896000,0.000000

2.117943,0.192933,9.520862,17.135881,-0.036050,0.083948,0.154014,5.816000,0.000000

-0.166906,-0.326786,8.941267,17.153528,0.044688,0.223575,0.035172,6.104000,0.000000

-0.279472,1.538934,10.730347,17.150587,0.004186,0.074889,-0.184393,6.020000,0.000000

0.213903,-0.604609,8.057505,17.156469,0.169926,0.083682,-0.280853,6.136000,0.000000

1.162330,-1.869179,10.737532,17.174116,0.014844,-0.013577,-0.305900,5.972000,0.000000

1.514398,1.227581,9.211904,17.147646,0.061475,0.087945,-0.171070,6.348000,0.000000

0.903668,2.549632,6.939030,17.159410,-0.070424,0.066362,0.119107,6.232000,0.000000

0.074991,2.087393,12.596066,17.185881,-0.025924,0.073556,0.313625,6.868000,0.000000

0.633031,1.093460,9.743598,17.159410,0.075065,0.025060,0.337607,6.952000,0.000000

-0.799191,1.582044,8.732900,17.174116,0.038826,0.069293,0.553974,7.076000,0.000000

-1.215924,-0.161530,8.143725,17.168234,0.016177,-0.150805,0.456982,7.024000,0.000000

-1.556017,-0.192665,10.766272,17.168234,-0.009137,-0.172122,0.429803,7.096000,0.000000

0.268988,0.844378,10.929133,17.185881,0.178452,-0.031430,0.586483,7.176000,0.000000

0.539625,-3.466657,8.047924,17.171175,0.050284,-0.077794,0.879858,7.184000,0.000000

-3.187025,-0.372292,8.840676,17.182940,0.069736,0.087412,1.069579,7.204000,0.000000

-1.407526,0.121082,9.829819,17.197645,-0.045376,-0.108437,1.033607,7.192000,0.000000

0.860558,2.161639,8.294611,17.194704,0.053482,-0.131353,0.723711,7.248000,0.000000

0.530045,-1.313534,11.063254,17.197645,0.021240,0.071691,0.706924,7.292000,0.000000

1.112035,-2.187716,8.524533,17.200586,0.019641,-0.006382,0.607000,7.248000,0.000000

1.291661,-2.254777,10.366303,17.174116,-0.022727,0.110062,0.864403,7.252000,0.000000

0.168397,4.628509,8.325747,17.177057,0.098514,0.227305,0.722378,7.276000,0.000000

-3.697164,0.259993,9.556787,17.185881,0.104909,0.040249,0.188388,7.296000,0.000000

0.783917,-3.236735,7.353368,17.185881,-0.322231,0.124184,-0.293110,7.284000,0.000000

1.162330,2.463411,12.155383,17.200586,-0.434145,0.246224,-0.509478,7.264000,0.000000

4.158500,1.938902,9.880115,17.200586,-0.098669,0.229703,-0.568099,7.260000,0.000000

-0.516578,1.773646,10.275292,17.215292,-0.251618,0.247290,-0.660828,7.244000,0.000000

-0.198041,3.138807,10.672866,17.206469,-0.259612,0.193731,-0.546249,7.276000,0.000000

0.118102,4.288416,10.313613,17.194704,-0.033119,0.022129,-0.319223,7.304000,0.000000

1.128800,7.169625,7.679091,17.194704,0.217622,0.041581,-0.153217,7.304000,0.000000

0.664166,-1.761403,6.634862,17.185881,-0.004341,-0.158532,0.054357,7.324000,0.000000

0.369579,2.197564,11.288386,17.188822,0.249598,-0.086055,0.169202,7.320000,0.000000

0.520465,-1.409335,8.330537,17.206469,0.804906,0.152962,0.106584,7.352000,0.000000

0.453404,-4.848583,8.713739,17.206469,-0.496231,-0.089785,0.073276,7.332000,0.000000

-2.291288,5.200919,7.698251,17.188822,0.236541,0.141238,-0.127370,7.340000,0.000000

0.731227,-2.642770,13.757651,17.197645,-0.515949,0.190267,-0.310430,7.328000,0.000000

3.188517,2.305340,10.459709,17.191763,0.063074,0.082350,-0.340007,7.320000,0.000000

0.941988,2.082603,11.982942,17.188822,0.077197,0.104466,-0.050629,7.320000,0.000000

0.573155,1.445528,8.938871,17.206469,0.070802,0.144435,0.155080,7.320000,0.000000

0.204322,3.883658,4.371569,17.209410,0.499273,0.029324,-0.007729,7.336000,0.000000

3.868702,-3.167279,14.217495,17.227058,-0.359002,-0.063672,-0.003199,7.340000,0.000000

2.019747,2.362821,6.033712,17.209410,-0.278264,0.126582,0.063683,7.348000,0.000000

1.859281,-0.413007,10.124407,17.197645,-0.094938,0.176677,-0.243015,7.356000,0.000000

-2.087711,-1.232104,8.570039,17.194704,-0.157290,0.402638,-0.655765,7.340000,0.000000

0.403109,3.416629,6.134304,17.197645,-0.358203,0.083682,-1.024549,7.348000,0.000000

1.418597,1.938902,9.379556,17.212351,-0.115189,0.119921,-1.040804,7.360000,0.000000

-0.892597,0.362979,13.597185,17.200586,-0.105064,0.180408,-1.087168,7.376000,0.000000

-2.056576,-1.902709,9.604687,17.197645,0.304756,0.074889,-1.008562,7.384000,0.000000

0.491725,-0.784235,5.935517,17.188822,-0.054436,-0.125225,-0.519070,7.404000,0.000000

2.362235,-0.317206,8.438313,17.203527,-0.335554,0.009339,-0.015723,7.388000,0.000000

-3.898346,-3.473842,13.647480,17.197645,-0.658240,0.000812,0.281117,7.392000,0.000000

-3.673214,-0.930331,15.223403,17.197645,-0.097869,0.078353,0.160942,7.400000,0.000000

-1.177604,9.152701,10.316008,17.203527,0.283972,-0.113500,0.106584,7.408000,0.000000

0.089361,2.805899,6.196574,17.218235,0.575215,-0.199035,0.064216,7.400000,0.000000

1.662889,-6.295175,11.326706,17.200586,-0.019263,-0.447644,0.136427,7.400000,0.000000

4.364471,1.093460,6.694738,17.209410,-0.263076,-0.283237,0.393031,7.380000,0.000000

-1.457821,1.677845,17.570522,17.197645,-0.102133,0.112193,0.665356,7.396000,0.000000

3.248392,2.049073,7.885063,17.212351,0.341527,-0.214223,0.411150,7.412000,0.000000

1.368302,3.881263,11.223721,17.203527,0.190443,0.041048,0.429270,7.400000,0.000000

-1.996701,-4.223483,11.772180,17.206469,0.216557,0.067161,0.270458,7.404000,0.000000

-0.025599,6.285863,11.444062,17.215292,0.400416,-0.044220,0.070878,7.412000,0.000000

1.368302,1.965247,8.376042,17.203527,0.489947,0.284062,0.107650,7.420000,0.000000

-1.450636,-0.496833,8.364067,17.206469,0.125160,0.049575,-0.155082,7.428000,0.000000

1.631754,0.008516,6.330695,17.224117,-0.224439,-0.095114,-0.026381,7.416000,0.000000

0.254618,7.344461,4.781117,17.218235,0.382296,0.227039,0.043699,7.432000,0.000000

1.296451,-7.772902,13.657061,17.221176,-0.277465,-0.343191,-0.119110,7.428000,0.000000

-1.620682,-0.671669,11.623689,17.209410,0.100112,0.191333,-0.156148,7.428000,0.000000

0.707277,-2.115866,2.695055,17.206469,0.014844,0.030922,-0.118044,7.424000,0.000000

-2.224227,-7.212467,10.234577,17.221176,0.312750,-0.135617,-0.089799,7.416000,0.000000

-2.365534,-2.226037,5.808581,17.209410,-0.695811,-0.088186,-0.300837,7.408000,0.000000

-2.396669,7.473793,12.763718,17.232941,0.118765,0.155893,-0.200381,7.424000,0.000000

3.554955,5.057218,8.196416,17.203527,-0.076819,-0.167326,-0.277922,7.416000,14.622553

0.671351,4.369847,11.590158,17.212351,-0.515682,0.192399,0.150550,7.428000,14.622553

1.112035,1.469478,7.125842,17.212351,0.468630,-0.291764,-0.241150,7.424000,14.622553

3.499869,0.001331,7.063571,17.215292,0.180318,-0.022637,0.084734,7.396000,14.622553

-0.327372,0.492310,13.043935,17.215292,-0.313704,-0.010646,-0.005864,7.396000,14.622553

2.163449,2.822664,8.208390,17.206469,0.692459,0.132178,-0.083138,7.420000,14.622553

1.212626,3.500455,5.437353,17.227058,0.113969,-0.112168,-0.091132,7.424000,14.622553

-0.025599,-1.718293,8.330537,17.230000,0.146743,-0.038891,-0.074344,7.432000,14.622553

-0.360902,-3.974401,8.958032,17.218235,-0.841299,-0.014643,-0.159612,7.412000,14.622553

0.752782,-3.588803,8.172465,17.227058,-0.212981,-0.117497,-0.163876,7.424000,14.622553

-0.906967,-2.216457,15.065331,17.209410,-0.654243,0.059167,0.000265,7.424000,14.622553

-2.212252,1.095855,4.148832,17.232941,-0.239361,0.219045,-0.146556,7.440000,14.622553

-0.859066,-8.517753,16.332296,17.224117,-0.997180,-0.165194,-0.134032,7.428000,14.622553

3.696261,8.623402,12.296689,17.230000,-0.112791,0.175345,-0.047165,7.440000,14.622553

0.491725,6.796002,10.222602,17.224117,0.755344,0.229970,-0.297107,7.444000,14.622553

2.199374,-2.348183,6.821674,17.218235,0.765469,-0.229678,-0.394099,7.448000,14.622553

0.886903,-2.072756,6.105563,17.224117,0.142480,-0.197969,-0.274458,7.452000,14.622553

-0.911757,7.167230,8.170071,17.241764,0.126492,0.103933,-0.284583,7.460000,14.622553

1.911971,2.118529,6.436076,17.227058,0.057212,-0.090318,-0.270727,7.456000,14.622553

-0.835116,-7.830382,9.705278,17.230000,-0.297982,-0.098578,-0.290978,7.460000,14.622553

-1.139284,0.535421,10.957873,17.227058,-0.450133,-0.088186,-0.383441,7.472000,14.622553

-2.487679,-2.226037,11.856006,17.200586,-0.715263,0.040515,-0.207842,7.472000,14.622553

-2.492470,6.355319,13.333733,17.209410,0.236541,0.296053,-0.291778,7.488000,14.622553

1.250946,0.188143,12.955319,17.227058,-0.170347,-0.070600,-0.325885,7.480000,15.983572

-0.075895,5.117093,13.087046,17.232941,0.426263,0.121520,-0.267796,7.484000,15.983572

0.094152,8.903619,8.009604,17.235882,0.079595,-0.259522,-0.174801,7.488000,15.983572

3.087926,1.608389,11.089600,17.230000,0.217889,-0.240070,0.222228,7.484000,15.983572

-0.346532,-4.427060,9.858560,17.221176,0.317279,-0.186777,0.212103,7.468000,15.983572

-1.778754,3.361544,7.310258,17.230000,0.035629,-0.418866,0.339472,7.464000,15.983572

1.183886,-3.667839,8.232341,17.218235,-0.115722,-0.378364,0.642440,7.460000,15.983572

2.805314,-4.307309,11.216536,17.218235,0.476091,-0.560091,0.621656,7.476000,15.983572

-2.712811,2.559212,3.748864,17.238823,0.156336,-0.117231,0.584351,7.488000,15.983572

-3.409762,-3.725319,3.722519,17.235882,-0.443738,-0.172388,0.575025,7.480000,15.983572

-2.154772,-4.458195,15.484460,17.241764,0.048952,-0.407675,0.027711,7.492000,15.983572

-2.327213,-0.817765,9.238249,17.221176,-0.106129,-0.528116,-0.228093,7.492000,15.983572

1.631754,-1.744638,10.327983,17.238823,-0.310506,-0.282970,0.243545,7.500000,15.983572

-0.974027,5.538617,16.978952,17.235882,-0.288390,0.389048,0.341870,7.500000,15.983572

1.780245,7.148070,9.860954,17.224117,0.061742,0.167618,0.146020,7.508000,15.983572

2.755018,8.831769,8.347301,17.230000,-0.478378,0.043713,0.413548,7.500000,15.983572

3.387303,0.248018,16.840042,17.232941,0.825423,0.137774,0.621389,7.504000,15.983572

1.895206,9.092826,3.806345,17.224117,0.933607,-0.103375,0.258467,7.516000,15.983572

6.342758,-0.044174,11.800920,17.232941,-0.024326,-0.023702,0.769809,7.504000,15.983572

1.361117,4.817716,10.157937,17.250587,0.505668,0.160423,0.617659,7.512000,15.983572

-1.088988,6.142161,13.302597,17.232941,0.352186,0.009339,0.303499,7.512000,19.266300

6.493644,3.735167,4.881708,17.230000,0.452909,-0.333332,0.054890,7.516000,19.266300

2.570602,0.185748,8.007209,17.241764,0.902431,-0.047684,-0.051962,7.512000,19.266300

-1.996701,-5.001864,10.239367,17.241764,0.040958,-0.384226,-0.375447,7.516000,19.266300

-0.408803,-4.163608,7.013276,17.215292,-0.052837,0.068760,-0.127370,7.524000,19.266300

-0.935707,0.022887,14.895286,17.230000,-0.028589,0.208386,0.078872,7.524000,19.266300

-1.697323,2.312525,11.111155,17.227058,-0.244157,0.319235,0.128967,7.524000,19.266300

-2.123636,-1.193783,10.850098,17.227058,-0.622800,-0.116964,0.315224,7.516000,19.266300

-0.554899,-0.738730,11.944621,17.230000,0.001788,-0.144676,0.725043,7.520000,19.266300

-3.060089,3.002291,9.444221,17.235882,0.420134,0.074089,0.521199,7.524000,19.266300

-2.185907,-4.510885,12.766113,17.224117,-0.313437,-0.516125,0.169735,7.516000,19.266300

4.903351,0.674332,11.899116,17.232941,-0.174877,-0.148940,0.372780,7.520000,19.266300

2.719093,9.703556,10.514794,17.232941,-0.006739,0.472717,0.443392,7.512000,19.266300

2.616107,3.984249,12.531401,17.241764,0.474492,-0.055678,0.402890,7.520000,19.266300

2.465221,-1.517111,9.688513,17.247646,0.439852,-0.147607,0.219031,7.524000,19.266300

0.007931,-1.428495,7.089916,17.241764,-0.280396,-0.010113,0.205708,7.516000,19.266300

-1.570387,2.329290,9.779524,17.224117,-0.128779,0.118056,0.116976,7.512000,19.266300

2.419716,3.672896,12.996035,17.227058,-0.085612,0.277134,0.243545,7.516000,19.266300

0.858163,2.372401,14.399516,17.227058,0.393754,0.119921,0.354127,7.524000,19.266300

2.232904,-2.020065,5.638535,17.238823,0.341794,0.054638,0.561169,7.520000,20.196763

-4.789293,-4.762362,11.288386,17.247646,-0.618004,-0.069534,0.726109,7.504000,20.196763

-1.002767,1.136571,14.456997,17.221176,-0.437342,0.114858,0.927022,7.504000,20.196763

2.084413,4.611744,9.913645,17.224117,0.591203,0.312307,1.079971,7.496000,20.196763

3.895048,2.880145,13.017590,17.232941,0.731629,0.235033,1.141524,7.512000,20.196763

-0.878226,-0.365107,2.141806,17.241764,-0.117587,-0.202232,0.619524,7.496000,20.196763

0.731227,0.291129,7.489884,17.230000,0.379632,0.574239,0.735968,7.492000,20.196763

3.313058,-6.623292,12.136223,17.235882,-0.457327,0.329627,0.595809,7.508000,20.196763

-0.233966,-3.157700,7.719806,17.227058,-0.060298,0.350677,0.256868,7.504000,20.196763

-0.188461,-2.130236,7.791657,17.230000,0.038560,0.180941,-0.579557,7.496000,20.196763

1.272501,-5.274897,7.600055,17.224117,-0.071489,0.427152,-0.687208,7.496000,20.196763

-0.030389,-3.447497,8.064690,17.235882,-0.348344,0.533204,-0.789263,7.508000,20.196763

-0.844696,-2.558945,9.580737,17.209410,-0.382185,0.320834,-0.985912,7.496000,20.196763

-0.911757,-0.020224,8.991562,17.238823,-0.309440,0.464990,-1.001101,7.492000,20.196763

2.561022,1.105435,13.216376,17.235882,-0.711532,0.170549,-0.854280,7.496000,20.196763

0.410294,-0.527968,13.975597,17.218235,0.101178,0.373327,-0.752225,7.496000,20.196763

-0.377667,2.832244,7.372529,17.232941,0.233344,0.169483,-0.472706,7.504000,20.196763

-0.727340,-0.252541,9.928015,17.215292,-0.209783,0.076221,-0.127637,7.488000,20.196763

-0.612379,-0.448932,11.683564,17.215292,-0.308907,-0.002652,0.077539,7.488000,20.196763

-2.463729,7.574383,10.390254,17.209410,-0.213514,0.144435,0.010391,7.500000,20.196763

3.004100,3.536380,11.295571,17.224117,0.323408,-0.315212,-0.233955,7.492000,20.196763

2.886744,8.046202,11.642849,17.238823,1.229380,0.048775,-0.403159,7.512000,20.196763

1.083295,-12.436005,3.966811,17.238823,-0.430148,-0.254459,-0.593147,7.500000,17.628693

0.376764,2.166429,12.378119,17.224117,-0.904185,0.133244,-0.150020,7.492000,17.628693

-0.629144,8.206669,9.156818,17.241764,0.375102,0.337621,0.102587,7.484000,17.628693

-1.874555,-0.104050,10.826147,17.227058,0.100645,-0.106839,0.289110,7.496000,17.628693

-5.129386,8.484490,4.888893,17.212351,0.917086,0.106598,0.288578,7.512000,17.628693

2.661613,-7.028051,19.354813,17.232941,-0.810390,-0.276842,0.306697,7.500000,17.628693

2.529886,4.458463,11.020144,17.238823,0.023638,-0.133485,0.231022,7.504000,17.628693

0.043856,7.315721,9.808264,17.238823,-0.355805,0.167351,0.100189,7.508000,17.628693

1.576669,0.271969,13.922908,17.232941,-0.114923,0.309109,0.102853,7.516000,17.628693

0.692906,0.988079,9.240644,17.221176,0.216024,0.232635,-0.150286,7.520000,17.628693

2.249669,10.539417,8.304192,17.209410,0.323674,-0.034627,-0.063153,7.532000,17.628693

3.703446,1.285062,17.443586,17.238823,0.641564,0.329893,0.050627,7.524000,17.628693

1.670074,2.520892,2.575305,17.218235,1.307721,0.341351,-0.171870,7.532000,17.628693

-2.212252,-3.643888,10.648915,17.218235,-0.196727,-0.294162,-0.350932,7.524000,17.628693

-1.778754,7.856996,10.533955,17.227058,-0.001143,0.541731,-0.263799,7.524000,17.628693

5.106927,5.830809,6.098378,17.209410,0.712443,0.116457,-0.382109,7.524000,17.628693

-3.084039,-5.622174,6.869575,17.247646,0.064140,0.126316,-0.509211,7.536000,17.628693

-3.290011,-6.493961,8.776011,17.227058,-0.423486,-0.131620,-0.672020,7.516000,17.628693

-1.244664,-11.856410,-0.028082,17.224117,-0.553254,0.168417,-0.727444,7.524000,17.628693

-2.875673,12.165636,8.227551,17.230000,0.201368,0.443140,-0.467643,7.512000,17.628693

0.630636,-4.019907,11.163845,17.230000,-0.225771,-0.160131,-0.739168,7.512000,17.628693

-5.328173,-1.418915,6.646838,17.230000,-0.132509,0.132178,-0.802853,7.516000,18.285469

1.737135,5.507482,17.347786,17.235882,-0.557517,-0.105773,-0.726911,7.512000,18.285469

3.490289,2.966366,14.627043,17.227058,-0.208718,0.121520,-0.615263,7.500000,18.285469

4.278251,0.995264,1.068837,17.221176,0.591203,0.119388,-0.725046,7.496000,18.285469

-4.681518,-8.285437,14.514477,17.235882,-0.680090,-0.727963,-0.724246,7.496000,18.285469

-1.469796,-6.014957,13.398398,17.224117,-0.296117,0.307510,-0.540920,7.512000,18.285469

-1.117728,-2.750546,8.162886,17.224117,-0.450399,-0.184646,-0.235821,7.504000,18.285469

-3.804940,-2.606845,13.728910,17.238823,-0.307309,-0.021038,0.017052,7.508000,18.285469

1.229391,8.280914,10.888417,17.215292,-0.136773,-0.114300,0.128434,7.512000,18.285469

0.865348,6.101446,8.476633,17.235882,0.663947,0.124984,0.247276,7.520000,18.285469

-0.044760,-3.864230,11.803315,17.218235,0.554697,-0.293362,0.048228,7.524000,18.285469

-2.240993,-1.809304,8.984377,17.230000,0.486750,0.131912,-0.298706,7.540000,18.285469

1.241366,-2.075150,7.940148,17.230000,0.740422,-0.006382,-0.533726,7.556000,18.285469

-1.936825,7.835441,14.083374,17.224117,-0.110926,0.174812,-0.496154,7.548000,18.285469

1.665284,5.461976,9.554392,17.224117,0.789984,0.058635,-0.402093,7.544000,18.285469

5.193148,4.949442,5.705595,17.235882,2.014112,-0.356248,-0.494822,7.552000,18.285469

3.389699,2.906490,9.865745,17.232941,0.286370,0.033054,-0.575294,7.536000,18.285469

-1.824259,-4.259408,10.114826,17.224117,1.104410,-0.250728,-0.729309,7.536000,18.285469

-2.078131,-5.919157,13.836687,17.209410,-0.705137,-0.524119,-0.728776,7.532000,18.285469

-2.856513,3.248978,2.407653,17.212351,-0.292120,0.178543,-0.433536,7.528000,18.285469

-1.251849,1.323382,6.143884,17.230000,0.475292,-0.166526,-0.066084,7.540000,18.285469

-2.724787,4.606954,13.333733,17.224117,-0.903918,-0.313614,0.111646,7.524000,18.665117

-2.056576,0.224068,3.365661,17.224117,0.418802,-0.071399,0.273389,7.528000,18.665117

-0.945287,1.663475,7.633585,17.230000,0.514995,-0.366906,0.194783,7.536000,18.665117

0.276173,3.981854,12.289504,17.230000,0.231212,-0.268848,0.268060,7.524000,18.665117

2.625687,-9.779928,5.602609,17.215292,0.429460,-0.543571,0.240348,7.520000,18.665117

0.091757,-0.480068,7.425219,17.215292,0.283172,-0.562223,0.022382,7.516000,18.665117

-1.256639,-9.073398,10.804592,17.209410,-0.574038,-0.404744,0.166538,7.512000,18.665117

1.447338,2.954390,7.971283,17.230000,-0.568442,-0.033029,0.326415,7.508000,18.665117

0.024696,-0.549523,9.844189,17.227058,0.037760,0.333890,0.206507,7.496000,18.665117

1.322797,-0.573473,7.995234,17.209410,-0.101600,-0.184379,-0.095928,7.508000,18.665117

3.016075,3.787857,5.075705,17.224117,0.053748,0.076754,-0.132700,7.496000,18.665117

0.355209,2.772369,13.439114,17.221176,-0.212448,0.166285,-0.182262,7.512000,18.665117

0.692906,-2.245197,12.713423,17.227058,-0.374990,0.267275,-0.382109,7.508000,18.665117

-1.563202,1.388048,10.615385,17.215292,0.191243,0.030656,-0.443128,7.512000,18.665117

2.163449,-2.211667,13.841476,17.215292,0.544838,0.160157,-0.437533,7.536000,18.665117

-2.617011,-3.938476,14.286950,17.209410,0.286903,0.043180,-0.577425,7.532000,18.665117

-0.099845,7.674974,4.539220,17.197645,0.069469,-0.155868,-0.743165,7.536000,18.665117

1.181490,3.749537,11.527888,17.215292,-0.076286,0.202258,-0.523600,7.544000,18.665117

1.583854,3.639366,11.194981,17.215292,0.661016,0.082083,-0.536923,7.540000,18.665117

-1.963170,-3.675024,5.023015,17.206469,0.396685,-0.260321,-0.458583,7.544000,18.665117

0.673746,1.237161,6.728268,17.232941,-0.228702,-0.043954,0.021582,7.540000,18.665117

-1.584757,0.176168,10.289662,17.212351,0.501139,0.125517,0.132963,7.536000,17.886332

-3.929481,-2.020065,3.207590,17.227058,0.758541,0.003743,0.186789,7.536000,17.886332

-5.725746,-2.590080,10.122011,17.230000,-0.593223,-0.286168,0.298437,7.532000,17.886332

-1.951195,-6.980150,17.316650,17.215292,-0.892727,0.027991,0.564633,7.524000,17.886332

-3.553463,-0.880036,9.542417,17.200586,-0.610809,0.214782,0.489490,7.524000,17.886332

-5.953273,-0.252541,17.977676,17.209410,-1.278031,0.159357,0.446856,7.500000,17.886332

4.958436,6.391243,14.928816,17.221176,0.368440,-0.037825,0.119907,7.496000,17.886332

6.694826,-6.235299,2.817201,17.206469,0.763338,-0.335730,-0.163343,7.520000,17.886332

-4.327055,5.955350,10.761481,17.224117,-0.317967,-0.014909,0.155613,7.512000,17.886332

-2.051786,6.264307,9.791499,17.218235,0.123295,0.059167,0.011457,7.512000,17.886332

4.692589,-3.210390,8.962822,17.221176,0.205099,-0.210759,-0.068482,7.508000,17.886332

-0.660280,3.644156,9.219090,17.227058,0.372970,0.283529,0.103919,7.524000,17.886332

-0.928522,0.408485,5.633744,17.206469,0.319944,-0.098045,-0.167873,7.524000,17.886332

1.219811,2.506522,10.380673,17.203527,-0.038182,0.025593,-0.379444,7.528000,17.886332

2.527491,-3.382831,8.153305,17.191763,0.675671,0.171615,-0.717851,7.536000,17.886332

-0.224386,0.133057,9.056228,17.200586,-0.254016,-0.108704,-0.916099,7.540000,17.886332

0.625846,-11.185804,11.101574,17.206469,-1.069924,-0.015975,-0.867603,7.512000,17.886332

-2.923573,-1.656022,12.538586,17.209410,-0.219110,0.728255,-0.955802,7.520000,17.886332

-0.986002,2.379586,8.241920,17.206469,-0.518347,-0.223016,-1.021885,7.512000,17.886332

0.149237,-1.382990,17.932171,17.209410,-0.284659,0.401039,-0.681079,7.508000,17.886332

2.211349,1.632339,10.287268,17.209410,0.133420,0.171881,-0.535857,7.496000,17.886332

-0.966842,5.493111,8.943662,17.218235,0.614652,-0.072465,-0.461248,7.508000,17.886332

-0.425568,-0.472883,8.172465,17.212351,0.448112,-0.113234,-0.188390,7.516000,17.886332

-2.207462,-1.246474,8.804750,17.200586,-0.138371,-0.241935,-0.103389,7.508000,16.829974

0.060621,2.655013,11.058464,17.194704,0.348988,-0.412738,-0.019187,7.520000,16.829974

0.733622,3.289693,10.160332,17.209410,0.184848,-0.348787,-0.024249,7.520000,16.829974

-0.578849,5.550592,9.599897,17.212351,0.711910,-0.250728,-0.186259,7.516000,16.829974

0.108522,-2.546969,9.858560,17.203527,0.368440,-0.449243,-0.424210,7.516000,16.829974

0.747992,1.059930,4.805068,17.200586,0.521390,-0.332532,-0.624323,7.524000,16.829974

0.496515,-7.102296,9.022697,17.206469,0.281040,-0.261120,-0.393033,7.516000,16.829974

-2.157167,-8.366867,10.191467,17.200586,-0.975330,-0.245133,-0.493490,7.512000,16.829974

-2.456544,8.721598,10.636941,17.215292,-0.358469,-0.081258,-0.392234,7.516000,16.829974

1.586249,3.478900,5.686435,17.212351,0.911757,-0.038358,-0.189190,7.520000,16.829974

-1.309330,-2.877482,10.466894,17.188822,-0.593489,-0.438318,-0.120709,7.516000,16.829974

-1.912875,0.384534,10.090877,17.209410,-0.618270,-0.604058,0.197181,7.512000,16.829974

-3.891161,4.769815,13.048725,17.185881,-0.151428,0.086880,0.423674,7.512000,16.829974

1.210231,0.013306,10.342353,17.179998,0.674606,-0.726630,0.389300,7.508000,16.829974

2.144288,-1.761403,8.201205,17.191763,-0.064828,-0.525984,0.571561,7.508000,16.829974

-3.495983,0.863538,7.022856,17.185881,0.200835,-0.256324,0.476700,7.512000,16.829974

2.101178,-5.337167,7.427614,17.203527,-0.351009,-0.899298,0.370914,7.516000,16.829974

-3.414552,6.700201,10.773457,17.194704,-0.257214,-0.078594,0.649901,7.528000,16.829974

-3.946246,-1.933844,15.872454,17.194704,-0.541529,-0.197436,0.744228,7.528000,16.829974

-0.487838,3.193892,18.432730,17.185881,-0.062430,-0.003185,0.925689,7.540000,16.829974

1.591039,4.379427,10.476475,17.191763,0.469429,-0.574214,0.989640,7.548000,16.829974

-0.868646,0.231253,13.029565,17.182940,0.001521,-0.472159,1.252905,7.544000,16.829974

0.901273,5.004527,12.663127,17.182940,0.332201,-0.244067,1.590780,7.540000,16.829974

-1.994306,0.525841,7.604846,17.185881,1.037527,-0.097246,1.467141,7.552000,17.168638

-1.311725,-4.055832,8.692184,17.182940,-0.016065,-0.755408,0.801784,7.548000,17.168638

-1.668583,-3.689394,12.481106,17.188822,-0.324895,0.258215,0.734902,7.556000,17.168638

2.786154,2.437066,11.647639,17.203527,-0.166883,0.244625,0.494553,7.552000,17.168638

4.239931,3.699241,10.981823,17.194704,-0.196194,-0.051148,0.280584,7.544000,17.168638

3.514239,2.662198,12.974480,17.179998,0.007650,0.281397,0.464709,7.540000,17.168638

1.964662,5.018898,10.766272,17.182940,1.192342,0.195596,0.645104,7.544000,17.168638

0.496515,-1.481186,6.982141,17.174116,1.106541,0.061566,0.748225,7.564000,17.168638

-5.328173,-1.378200,18.286633,17.185881,0.030832,0.172148,0.951803,7.556000,17.168638

0.201927,-5.394648,9.353210,17.191763,0.269849,0.222775,0.956865,7.560000,17.168638

1.614989,14.069676,0.122804,17.171175,0.748416,-0.001053,0.299502,7.560000,17.168638

-0.641119,-10.582260,9.944780,17.203527,0.349788,0.344815,0.294973,7.560000,17.168638

-0.533344,-2.051200,10.083691,17.185881,0.079861,-0.420199,-0.139361,7.560000,17.168638

-0.574059,-9.320085,10.407019,17.182940,-0.197260,0.450867,0.293374,7.560000,17.168638

3.657941,5.624837,16.931051,17.188822,0.082526,0.627798,0.382639,7.568000,17.168638

-0.248336,2.456226,6.136698,17.191763,0.736958,0.277933,-0.024782,7.572000,17.168638

-1.048273,10.182560,-1.223197,17.177057,0.095050,0.239829,-0.160145,7.560000,17.168638

1.794616,-9.437441,19.656584,17.174116,-1.037149,0.095939,-0.023184,7.560000,17.168638

0.180372,1.347332,9.963940,17.174116,-0.206586,0.392246,-0.176133,7.568000,17.168638

-2.209857,8.462935,11.417717,17.165293,0.202434,0.272604,0.141757,7.560000,19.567277

2.175424,-1.258449,11.882351,17.182940,0.116633,0.286193,0.336807,7.548000,19.567277

1.581459,5.584122,10.184282,17.182940,0.374569,0.184671,0.422875,7.544000,19.567277

-1.041088,3.617811,9.889694,17.179998,0.700452,0.420491,0.462844,7.548000,19.567277

-2.336793,-0.444142,13.058306,17.188822,-0.544993,-0.152137,0.281117,7.548000,19.567277

0.539625,-8.235141,10.057346,17.191763,-0.924436,-0.161197,0.548645,7.520000,19.567277

0.831818,5.445211,15.870058,17.185881,-0.132509,0.676561,0.867601,7.508000,19.567277

2.594552,-5.411413,6.855204,17.177057,0.405745,0.091143,0.544115,7.524000,19.567277

-1.453031,1.007240,7.147397,17.182940,0.174189,0.239030,0.309095,7.536000,19.567277

1.246156,4.832086,7.913803,17.191763,0.139282,0.227039,0.141757,7.532000,19.567277

-0.411198,-0.266911,6.357040,17.177057,0.040691,0.394111,0.214501,7.544000,19.567277

-2.533185,-7.437599,18.123772,17.188822,-0.185535,0.128448,0.017319,7.540000,19.567277

2.043698,2.554422,14.193544,17.197645,-0.148497,0.207321,-0.225429,7.544000,19.567277

-0.159721,6.340948,2.319037,17.200586,0.461969,0.506558,-0.502283,7.552000,19.567277

1.392252,-0.777050,7.841952,17.179998,0.131289,0.172148,-0.643508,7.536000,19.567277

2.017352,-0.451327,8.222761,17.182940,-0.449866,0.344282,-0.698932,7.548000,19.567277

0.005536,-2.041620,6.555827,17.200586,-0.146365,0.460194,-0.601407,7.552000,19.567277

-2.988239,0.865933,6.536667,17.188822,-0.626531,0.148166,-0.860675,7.544000,19.567277

1.444943,-0.013039,13.939672,17.188822,-0.384050,0.331492,-0.608602,7.544000,19.567277

-1.788334,-4.874928,12.133828,17.182940,-0.372326,0.262745,-0.707992,7.536000,19.567277

-2.724787,8.096498,7.885063,17.174116,-0.319832,0.234500,-0.659230,7.528000,19.567277

-0.286657,-2.443984,14.780324,17.182940,0.166995,0.140172,-0.613664,7.524000,19.567277

-2.494864,5.533827,7.736571,17.171175,-0.153293,-0.001586,-0.601940,7.528000,17.590417

2.472406,5.093143,13.525334,17.188822,-0.286258,-0.132686,-0.127104,7.524000,17.590417

-3.318751,2.738839,10.874047,17.197645,0.486750,0.276867,0.019983,7.524000,17.590417

-1.256639,-0.750705,7.166557,17.168234,0.202168,-0.462300,0.042899,7.520000,17.590417

0.290543,-4.027092,7.281518,17.179998,0.067338,-0.334131,0.239548,7.520000,17.590417

-3.057694,-2.082336,5.013434,17.179998,-0.093339,-0.034627,0.541184,7.536000,17.590417

-0.413593,-1.869179,5.624164,17.185881,0.262122,-0.265117,0.475368,7.528000,17.590417

0.860558,5.881104,14.210310,17.168234,0.086523,0.075955,0.498017,7.540000,17.590417

1.289266,-3.873810,14.974321,17.156469,0.064939,-0.041555,0.454850,7.536000,17.590417

3.648361,-3.538508,5.602609,17.150587,-0.140503,-0.005583,0.628317,7.540000,17.590417

-4.741393,6.278678,11.269226,17.182940,-0.553786,0.646984,0.595009,7.528000,17.590417

0.072596,6.647511,11.115945,17.168234,0.320210,-0.013044,0.248075,7.524000,17.590417

5.219493,-2.302677,7.046806,17.179998,0.418002,-0.176119,0.153215,7.536000,17.590417

-4.667147,-7.492684,12.107483,17.165293,-0.652910,0.421823,0.297904,7.544000,17.590417

-1.831444,-1.145883,10.768666,17.168234,-0.835171,0.498831,0.160942,7.536000,17.590417

0.609081,7.916871,3.229145,17.177057,-0.283594,0.341618,-0.040237,7.532000,17.590417

0.721647,-2.190112,19.606289,17.156469,-0.657973,0.446870,-0.134298,7.532000,17.590417

-0.042365,2.772369,9.372371,17.162352,-0.263342,0.616074,-0.541720,7.548000,17.590417

1.226996,2.290970,13.304993,17.185881,-0.047508,0.195596,-0.692804,7.544000,17.590417

1.993402,3.960299,15.913169,17.179998,0.108639,0.435146,-0.820439,7.564000,17.590417

-1.541647,6.709781,6.474396,17.182940,0.537111,0.343216,-1.079707,7.568000,17.590417

1.964662,-3.399596,12.437995,17.182940,-0.394175,0.214515,-0.848151,7.560000,17.590417

1.169515,2.765184,6.646838,17.185881,0.223218,0.179875,-0.818574,7.560000,17.328232

-0.356112,0.988079,9.944780,17.162352,-0.322231,0.146834,-0.838026,7.560000,17.328232

-3.749855,3.550750,13.922908,17.171175,-0.040580,0.149498,-0.682678,7.568000,17.328232

0.213903,-3.524137,13.666640,17.171175,0.118232,-0.041289,-0.508145,7.572000,17.328232

-0.844696,2.947205,7.013276,17.171175,0.238140,0.048775,-0.368253,7.576000,17.328232

-0.624354,10.249620,16.490368,17.156469,0.623978,0.061299,-0.265398,7.580000,17.328232

3.269948,-1.574591,7.188112,17.168234,0.189377,-0.113234,-0.443128,7.576000,17.328232

0.812657,7.179205,8.354486,17.147646,0.295696,-0.325604,-0.529729,7.576000,17.328232

0.163607,-0.549523,19.833817,17.162352,-0.784543,-0.021038,-0.399162,7.572000,17.328232

2.934645,6.590030,6.567802,17.147646,0.611187,0.108463,-0.366121,7.568000,17.328232

1.607804,-2.202087,8.198811,17.150587,-0.228436,-0.428992,-0.538522,7.568000,17.328232

0.041461,3.797437,14.080978,17.171175,-0.038981,-0.181715,-0.318158,7.564000,17.328232

2.359840,1.507799,4.156017,17.165293,0.427328,-0.064471,-0.378112,7.572000,17.328232

-2.942733,2.276600,7.822792,17.153528,-0.248953,-0.266983,-0.410886,7.568000,17.328232

-2.983449,-6.659218,12.933764,17.159410,-0.698209,-0.226214,-0.317625,7.564000,17.328232

1.787430,-3.234340,9.204719,17.150587,0.534180,-0.493209,-0.334412,7.576000,17.328232

-3.234926,4.472833,8.469448,17.138823,-0.111459,-0.346122,0.063950,7.576000,17.328232

-0.662675,-0.808185,9.896879,17.156469,-0.436276,-0.458303,0.185989,7.572000,17.328232

-3.416947,0.743787,14.816250,17.156469,-0.556451,-0.129222,0.200378,7.560000,17.328232

1.729950,-4.000746,14.071399,17.156469,0.418802,-0.020505,0.515604,7.584000,19.791704

-3.824100,2.853800,4.091352,17.153528,-0.527140,-0.255258,0.552908,7.564000,19.791704

-0.193251,-2.532599,9.216694,17.144705,0.332468,-0.065803,0.937947,7.576000,19.791704

-0.447123,1.270692,10.181887,17.159410,-0.296117,-0.674137,0.816173,7.580000,19.791704

-3.352282,-8.086650,8.031159,17.147646,-0.368062,-0.085255,0.939812,7.580000,19.791704

-4.552186,6.858273,11.468013,17.156469,0.160333,0.054371,0.720247,7.592000,19.791704

1.844911,-0.568683,7.832372,17.135881,0.428128,-0.259788,-0.014923,7.596000,19.791704

4.247116,4.959022,8.328141,17.168234,0.387359,-0.201166,-0.001867,7.592000,19.791704

5.111718,-6.043698,6.630073,17.156469,0.462768,-0.422064,0.034372,7.568000,19.791704

-2.434989,-2.410453,2.422023,17.147646,0.714309,-0.025035,0.058887,7.580000,19.791704

-4.135453,-0.808185,6.615702,17.144705,0.186446,-0.426327,-0.292844,7.568000,19.791704

1.799406,-11.073238,6.955795,17.147646,-0.807992,-0.587004,-0.060755,7.556000,19.791704

-1.067433,-0.384267,17.014877,17.153528,-0.488503,-0.255258,0.304565,7.564000,19.791704

-1.453031,2.863380,11.262041,17.153528,0.038560,0.042380,0.511873,7.560000,19.791704

0.431849,3.385494,7.966493,17.156469,0.595466,-0.110303,0.670951,7.560000,19.791704

-0.715365,-0.044174,8.776011,17.165293,0.331402,-0.311215,0.467907,7.556000,19.791704

-1.453031,-1.081218,14.265395,17.150587,0.070802,-0.113500,0.715184,7.560000,19.791704

2.230509,-1.615307,6.189389,17.165293,-0.203655,-0.321607,0.853745,7.560000,19.791704

1.406622,6.645116,15.764677,17.150587,0.165129,0.163354,1.345634,7.568000,19.791704

-1.718878,2.791529,8.661049,17.150587,0.076930,-0.316545,1.446624,7.556000,19.791704

-1.108148,6.115817,7.037226,17.162352,0.269316,0.219844,1.322186,7.556000,19.791704

2.532281,-1.660812,11.070439,17.168234,0.414538,-0.336263,1.167904,7.564000,19.008939

-0.715365,-4.731227,6.915080,17.153528,0.021240,-0.022903,0.972054,7.568000,19.008939

2.247274,6.199642,9.573552,17.144705,0.463034,0.441008,-0.664026,7.580000,19.008939

-0.061525,-2.558945,20.722368,17.179998,0.500872,0.872411,-0.992574,7.584000,19.474631

1.260526,-4.431849,8.859837,17.194704,0.348722,-0.011978,-0.869468,7.612000,19.474631

-1.098568,17.104164,3.289020,17.224117,2.425264,0.086347,-0.697067,7.624000,19.474631

-7.299273,9.832887,4.740402,17.221176,-0.183137,0.002411,-0.328283,7.616000,19.474631

-4.140243,-7.365748,8.893367,17.215292,-0.433345,-0.575013,-0.284317,7.612000,19.474631

1.504818,-6.673588,21.692350,17.230000,0.298893,-0.495341,-0.144957,7.612000,19.474631

1.198256,-3.926501,8.337722,17.253529,0.884045,-0.415402,-0.144158,7.616000,19.474631

-5.476664,4.465648,-3.723597,17.262352,0.446247,-0.178517,0.179061,7.604000,19.474631

1.579064,-9.466181,19.184765,17.282940,0.153671,-0.896633,0.176397,7.592000,19.474631

-5.728141,-7.449574,9.465776,17.277058,-0.299048,-0.302422,0.170002,7.596000,19.474631

-6.552028,8.867694,8.440707,17.271175,0.424664,0.451400,0.234219,7.588000,19.474631

4.407582,5.124278,3.310575,17.268234,0.413206,-0.057277,0.089264,7.584000,19.474631

2.970570,-4.082177,11.609319,17.271175,-0.133575,-0.345589,-0.068749,7.580000,19.474631

-1.266220,-5.334772,8.035949,17.285881,-0.234831,0.091143,-0.133233,7.588000,19.474631

-1.754804,5.996066,6.792934,17.288822,-0.283860,0.154028,-0.386372,7.588000,20.851300

4.654269,0.456385,16.073635,17.297646,0.877650,0.186270,-0.369585,7.612000,20.851300

-2.576295,14.256488,2.814806,17.297646,1.530217,0.576105,-0.321888,7.616000,20.851300

4.148920,-4.300124,3.779999,17.324116,-0.937759,-0.950992,-0.665092,7.592000,20.851300

-5.459898,6.266703,13.688195,17.291763,0.003387,-0.034894,-0.531860,7.612000,20.851300

3.456759,-1.964980,6.694738,17.291763,-0.110393,-0.047151,-0.763416,7.592000,20.851300

1.502423,-1.397360,10.486054,17.315292,-0.148763,0.166285,-0.692004,7.588000,20.851300

-1.750014,-1.593752,7.109076,17.315292,-0.531137,0.246224,-0.684543,7.584000,20.851300

-3.965406,0.767738,7.940148,17.321175,-0.157557,0.136708,-0.641376,7.584000,20.851300

-3.505563,7.030714,5.161925,17.329998,-0.481042,-0.018640,-0.900378,7.588000,20.851300

-3.131940,1.079090,8.328141,17.335880,-0.651845,-0.132153,-0.977652,7.584000,20.851300

5.650597,-6.098783,24.767555,17.338821,0.400416,-0.267249,-1.646739,7.584000,20.851300

-1.390761,-8.414767,9.657377,17.329998,0.125959,-0.135617,-1.324053,7.596000,20.851300

-1.321305,7.833045,2.038820,17.335880,0.868057,0.293654,-1.089566,7.604000,20.851300

-3.939061,-1.248869,14.128880,17.327057,-0.029921,-0.678134,-1.601707,7.608000,20.851300

0.084571,-0.324391,12.490685,17.332939,0.583742,-0.391687,-1.272360,7.608000,20.851300

-2.949918,-4.007931,11.671589,17.332939,0.410275,-0.240603,-0.981383,7.620000,20.851300

-1.165629,1.828731,5.628954,17.347647,0.499540,-0.547301,-0.858543,7.620000,20.851300

-1.795519,-3.121774,12.507451,17.329998,0.293031,-0.259255,-0.641376,7.612000,20.389199

-1.390761,-1.811698,4.824228,17.324116,0.380964,-0.549699,-0.529729,7.616000,20.389199

0.055831,1.462293,5.830136,17.327057,0.366575,-0.714373,-0.100191,7.608000,20.389199

-4.499496,8.335999,13.436718,17.324116,0.485417,-0.175852,0.421276,7.616000,20.389199

-4.125873,2.386771,3.432721,17.324116,-0.529805,-0.714906,0.821503,7.596000,20.389199

-2.719996,-6.180214,8.996352,17.338821,-0.020062,-0.334398,1.376544,7.592000,20.389199

-7.100487,0.901859,12.617621,17.341763,-0.249753,-0.735957,1.193751,7.576000,20.389199

3.265157,3.366334,10.304033,17.327057,-0.304910,-1.054379,1.443959,7.564000,20.389199

3.329823,6.331368,14.023499,17.327057,-0.040047,-0.439384,1.832994,7.560000,20.389199

2.695143,6.051151,8.948452,17.344706,0.322609,-0.314413,1.861772,7.564000,20.389199

2.149078,6.161322,9.774734,17.353529,0.176587,-0.278441,1.769043,7.584000,20.389199

-0.875831,7.610309,2.137016,17.353529,0.335665,0.097005,1.313126,7.584000,20.389199

-1.891320,-3.885785,15.520386,17.374117,-0.401903,-0.484682,1.001631,7.576000,20.389199

-1.685348,-5.919157,14.025893,17.388823,0.001521,-0.185179,0.834559,7.596000,20.389199

1.909576,-1.121933,9.908854,17.382940,0.556296,-0.226214,0.590213,7.616000,20.389199

0.913248,-4.455800,9.829819,17.406469,0.449978,-0.280039,0.363453,7.624000,20.389199

-3.426527,-9.339245,7.053991,17.418234,0.265586,0.210785,0.411150,7.624000,20.389199

0.501305,8.019856,13.578025,17.421175,0.146477,0.362135,0.227824,7.628000,20.389199

1.097665,4.448883,-1.086680,17.438822,0.631172,0.369596,-0.027447,7.628000,20.389199

-0.324977,1.823941,14.646203,17.438822,0.117433,-0.000787,-0.207576,7.628000,20.389199

-1.867369,-1.660812,12.481106,17.447645,-0.467186,0.308310,-0.030112,7.624000,20.042058

1.512003,1.802386,7.865902,17.453527,0.398550,0.510288,0.364786,7.620000,20.042058

-3.644474,3.174732,9.896879,17.485882,0.067604,0.210785,0.247276,7.620000,20.042058

-0.324977,-1.881154,8.696975,17.477058,0.301292,-0.123093,0.227824,7.612000,20.042058

-5.112621,-9.688917,3.871010,17.480000,-0.791737,-0.285901,0.247809,7.592000,20.042058

0.860558,-10.723566,15.180293,17.482941,-1.134675,-0.606989,0.618991,7.564000,20.042058

-2.633776,-2.285912,9.734018,17.524117,-0.281728,0.049841,0.608865,7.552000,20.042058

-3.187025,0.604876,5.248146,17.506470,0.109172,0.051973,0.227291,7.564000,20.042058

0.903668,-2.010485,8.742480,17.518234,-0.093073,-0.249396,0.141224,7.576000,20.042058

0.829423,9.183836,8.574828,17.535881,0.200302,0.235033,0.331744,7.580000,20.042058

-2.183512,3.172337,6.234894,17.559410,-0.346479,-0.117231,0.205708,7.572000,20.042058

0.546810,4.180641,14.277370,17.574116,-0.285725,-0.176119,0.256868,7.576000,20.042058

0.700091,1.668265,10.375883,17.565292,0.028967,-0.154535,0.279518,7.576000,20.042058

0.439034,7.928846,5.935517,17.568233,0.699120,0.132445,0.393830,7.592000,20.042058

-0.104635,1.919742,11.820080,17.579998,-0.238561,-0.117764,0.540651,7.592000,20.042058

3.231627,-1.866784,11.115945,17.574116,0.311950,-0.410872,0.738366,7.588000,20.042058

5.585931,-2.599660,11.199770,17.582939,0.370305,-0.153470,1.008293,7.596000,20.042058

-2.997819,-3.478632,8.028764,17.585880,-0.086411,-0.097246,1.034939,7.580000,20.042058

1.207836,1.423973,8.735295,17.597647,0.136618,0.004543,0.998167,7.580000,20.042058

4.254301,-3.413967,8.002419,17.585880,0.221086,-0.186511,0.999233,7.580000,20.042058

-0.483048,0.952154,11.482383,17.618235,0.267717,0.308576,1.070378,7.584000,20.042058

-0.823141,3.648946,9.243039,17.629999,0.046554,-0.038891,0.917696,7.584000,18.376969

2.002982,-3.598383,9.420271,17.641764,0.395086,0.228371,1.012023,7.596000,18.376969

2.077228,18.117258,5.552314,17.632940,2.037561,1.295820,0.292574,7.616000,18.376969

-6.348451,-5.495238,15.620976,17.644705,-1.686785,-0.169724,0.411683,7.600000,18.376969

4.479433,-2.614030,14.112114,17.668234,0.904030,0.408233,0.844951,7.612000,18.376969

-5.996383,8.046202,15.802998,17.659410,0.213093,1.097572,0.105784,7.608000,18.376969

7.489972,2.434671,2.515429,17.665293,0.091852,0.167351,-0.663493,7.600000,18.376969

5.346429,-4.939594,14.037868,17.668234,-0.158356,0.213183,-0.653367,7.580000,18.376969

-1.553622,-2.731386,8.100615,17.665293,-0.246822,0.816720,-0.953138,7.576000,18.376969

1.411412,-3.464262,11.297966,17.685881,-0.016598,0.377057,-1.082905,7.564000,18.376969

-2.164352,3.512430,7.844347,17.671175,-0.116522,0.601685,-1.149520,7.572000,18.376969

0.410294,-1.097983,8.644284,17.679998,-0.263875,0.164953,-0.782868,7.568000,18.376969

2.091598,2.925650,15.587446,17.694704,0.079062,0.267008,-0.175600,7.576000,18.376969

-4.645592,1.270692,5.983417,17.685881,0.180584,0.447137,-0.132700,7.576000,18.376969

-4.626432,0.542606,7.269543,17.697645,-0.377388,-0.153736,-0.394899,7.588000,18.376969

-4.257599,4.396193,8.814330,17.691763,-0.327027,0.055437,-0.318957,7.588000,18.376969

-3.177445,-1.557826,12.557746,17.694704,-0.488237,-0.117231,-0.489226,7.580000,18.376969

4.136945,-0.777050,7.964098,17.694704,0.277843,0.360270,-0.216102,7.580000,18.376969

2.922670,-2.784076,5.518784,17.703527,-0.379786,-0.101243,-0.212372,7.564000,18.376969

-2.377509,1.222791,9.032277,17.715292,0.358848,0.026393,-0.425009,7.560000,18.376969

-0.607589,-2.659535,5.370292,17.712351,-0.328093,-0.322940,-0.609934,7.552000,18.376969

0.027091,6.400824,17.877085,17.709410,-0.236430,0.009073,-0.525732,7.548000,18.071014

-3.831285,-4.690512,11.468013,17.721176,-0.142368,0.336288,-0.502816,7.564000,18.071014

-2.741552,9.011395,6.333090,17.721176,0.328204,0.167618,-0.595278,7.552000,18.071014

2.180214,1.138966,10.548325,17.706469,-0.017664,-0.007715,-0.522534,7.552000,18.071014

1.674865,-1.421310,11.091994,17.730000,0.103843,0.001345,-0.166007,7.556000,18.071014

-0.368087,3.186707,4.603886,17.741764,0.149674,0.182540,-0.045033,7.560000,18.071014

-1.948800,0.465965,8.965217,17.721176,-0.326494,-0.092983,-0.246213,7.560000,18.071014

-0.772846,-2.920593,3.691384,17.741764,0.223485,0.109262,-0.299772,7.568000,18.071014

4.412372,-2.096706,20.753504,17.753529,0.064939,-0.013310,-0.705860,7.568000,18.071014

0.961149,-0.506413,7.077941,17.738823,0.553898,0.409033,-0.968326,7.568000,18.071014

-1.625473,10.481937,4.524850,17.747646,0.582143,0.284595,-0.877462,7.584000,18.071014

-0.092660,1.083880,3.439906,17.724117,-0.115722,-0.046885,-0.732773,7.572000,18.071014

-0.190856,1.541329,13.506174,17.724117,0.080128,0.127648,-0.747695,7.568000,18.071014

-3.857631,7.243871,15.115627,17.727058,-0.073088,0.255550,-0.686142,7.576000,18.071014

-1.666188,-6.798129,7.767707,17.741764,-0.477312,0.098604,-0.689873,7.560000,18.071014

0.812657,0.921019,9.755573,17.741764,0.463301,0.175079,-0.618727,7.560000,18.071014

-0.669860,-1.186598,8.785590,17.730000,0.206431,0.019997,-0.705594,7.568000,18.071014

-5.613180,-2.839162,2.989643,17.741764,-0.595355,-0.257656,-0.833496,7.556000,18.071014

1.500028,-0.331576,8.673024,17.741764,0.241071,-0.054612,-0.717585,7.576000,18.071014

-2.518815,-0.142370,12.071557,17.730000,-0.142102,-0.393552,-0.928890,7.580000,18.071014

-2.921178,3.361544,2.548959,17.738823,0.573883,0.006674,-0.832164,7.592000,18.071014

1.035394,-2.922987,14.471367,17.732941,-0.954280,-0.618180,-0.606736,7.564000,18.071014

2.062858,-4.561181,8.708950,17.724117,-0.127447,0.045844,-0.894249,7.552000,18.071014

-1.165629,4.705150,9.116103,17.721176,0.040958,-0.074064,-1.077043,7.536000,16.951150

0.922828,-4.846188,8.059899,17.718235,-0.194595,-0.111901,-0.926225,7.540000,16.951150

-2.324818,4.056099,13.245117,17.706469,0.081993,0.074356,-0.662161,7.544000,16.951150

1.871256,-3.658259,9.084968,17.709410,-0.085878,-0.174787,-0.440197,7.532000,16.951150

-0.897387,-3.366066,6.788144,17.700586,0.395619,-0.099644,-0.293377,7.552000,16.951150

-3.242111,-3.658259,8.584409,17.682940,-0.756298,-0.422064,0.009325,7.560000,16.951150

-3.196605,3.692056,11.362632,17.671175,0.178186,-0.211558,-0.047165,7.572000,16.951150

-3.886371,7.811490,8.074269,17.674116,0.419867,-0.083390,-0.122841,7.580000,16.951150

1.614989,4.345897,11.844030,17.668234,0.488348,-0.517457,0.052225,7.588000,16.951150

1.842516,-2.652350,7.010880,17.662352,0.232544,-0.641362,0.293374,7.584000,16.951150

-3.364257,3.304063,9.688513,17.653528,0.708713,-0.122293,0.449254,7.580000,16.951150

4.192030,3.054981,5.513993,17.659410,0.457172,-0.222217,0.538519,7.572000,16.951150

1.246156,-4.953964,1.602926,17.668234,0.242403,-0.318943,0.513472,7.544000,16.951150

-0.590824,-3.928896,9.463381,17.656469,-0.529805,-0.567286,0.637910,7.544000,16.951150

-2.918783,-3.639098,13.281042,17.665293,-0.470650,-0.180116,0.313625,7.528000,16.951150

0.084571,1.471873,11.396162,17.641764,-0.375523,-0.016241,0.073809,7.532000,16.951150

-0.914152,2.872960,7.449169,17.647646,0.059610,-0.047950,-0.597677,7.556000,16.951150

1.665284,-1.042897,9.422666,17.638823,0.046820,-0.110836,-0.922761,7.564000,16.951150

1.605409,3.112462,12.912210,17.632940,0.144612,-0.108704,-0.934752,7.568000,16.951150

3.231627,-0.999787,8.946056,17.641764,0.102777,0.045578,-0.627787,7.572000,16.951150

-2.643356,0.849168,8.852651,17.635881,-0.086145,0.086613,-0.527064,7.580000,16.951150

-1.156049,2.389166,4.237448,17.638823,0.096648,-0.144676,-0.277122,7.576000,16.951150

-0.459098,-2.745756,9.255014,17.635881,-0.123982,-0.051947,0.119907,7.576000,16.769346

-4.578532,-1.720688,10.641730,17.609411,0.256259,-0.128422,0.082069,7.580000,16.769346

-1.017138,-2.956518,8.091035,17.632940,0.214158,-0.078594,0.241947,7.580000,16.769346

1.648519,1.802386,13.827106,17.612352,0.400149,0.025593,0.297371,7.576000,16.769346

-1.817074,3.184312,6.694738,17.615294,0.377500,0.140971,0.168403,7.580000,16.769346

-0.684230,0.034862,8.114985,17.600588,0.166195,-0.062073,-0.162543,7.576000,16.769346

2.436481,-1.780563,12.584091,17.612352,-0.031786,-0.081525,-0.456452,7.572000,16.769346

-0.609984,6.805582,9.631032,17.597647,0.292498,0.170016,-0.447658,7.588000,16.769346

0.316888,6.055941,6.081613,17.600588,-0.063495,0.063164,-0.573162,7.572000,16.769346

3.166962,4.391402,8.759245,17.603529,0.634636,0.066362,-0.668822,7.580000,16.769346

0.865348,-3.193625,5.729545,17.591763,-0.109594,-0.429525,-0.800988,7.580000,16.769346

-1.656608,-3.133749,11.422507,17.582939,-0.074420,-0.225414,-0.700265,7.584000,16.769346

-0.923732,-0.178295,5.015829,17.609411,-0.523410,-0.360245,-0.686409,7.576000,16.769346

-1.603917,-4.295334,17.323835,17.597647,-0.318767,-0.248330,-0.463646,7.580000,16.769346

-1.021928,2.171219,14.009129,17.597647,-0.090675,-0.083124,-0.250476,7.588000,16.769346

-0.413593,6.798397,5.298441,17.603529,0.260789,-0.005050,0.152948,7.584000,16.769346

-3.086434,3.809412,5.700805,17.585880,-0.032053,-0.118563,0.342669,7.576000,16.769346

2.620897,-3.088244,16.133511,17.594706,0.089720,-0.379163,0.360256,7.580000,16.769346

-1.402736,4.444093,8.292216,17.591763,0.044422,-0.101243,0.275254,7.596000,16.769346

-0.758475,-7.337008,8.505373,17.574116,-0.180206,-0.234741,0.454584,7.592000,16.769346

-2.262548,-3.536113,12.837963,17.588821,-0.375790,-0.198502,0.430069,7.588000,16.769346

-1.512907,8.949124,5.937912,17.582939,0.001788,-0.073797,0.343735,7.584000,16.769346

0.223483,2.899305,16.181410,17.571175,-0.270537,0.248089,0.645637,7.568000,18.343419

0.946778,-6.082018,9.216694,17.568233,0.417469,-0.235806,0.526529,7.596000,18.343419

-5.438344,11.499821,3.782394,17.565292,0.220554,0.165486,0.232620,7.588000,18.343419

-1.723668,-3.294216,13.237932,17.579998,-0.130644,-0.297626,0.142556,7.600000,18.343419

1.583854,-2.503859,9.666958,17.571175,-0.493832,-0.558493,0.197714,7.592000,18.343419

-3.874396,6.048756,13.879797,17.556469,0.157402,0.299783,0.125502,7.596000,18.343419

2.805314,11.272293,7.976073,17.565292,0.519258,0.392246,0.202510,7.612000,18.343419

-1.393156,-6.043698,12.773298,17.550587,-0.272402,-0.100177,-0.107652,7.600000,18.343419

-1.311725,-6.407741,14.088163,17.562351,-0.201523,-0.107372,0.012522,7.600000,18.343419

-1.893715,6.410404,6.397756,17.577057,-0.239894,0.296053,0.182525,7.592000,18.343419

-2.607430,-5.773061,13.963623,17.562351,-0.320365,0.135909,-0.208641,7.592000,18.343419

-2.490075,-8.050724,0.084484,17.553528,-0.711532,-0.382894,-0.216902,7.584000,18.343419

-6.022728,-4.142052,26.709917,17.562351,0.109705,0.543063,-0.005331,7.580000,18.343419

3.329823,-7.619621,11.137500,17.562351,-0.299048,-0.196370,-0.105787,7.596000,18.343419

-6.762789,8.357554,5.106840,17.562351,0.690327,0.685088,0.317355,7.588000,18.343419

-3.268456,4.786581,-0.533431,17.538822,-0.125315,-0.095381,0.126835,7.564000,18.343419

1.373092,-1.665602,10.280083,17.532940,-0.060031,-0.263519,0.159610,7.580000,18.343419

2.446061,5.339830,11.935041,17.541763,0.851803,0.131912,0.093261,7.604000,18.343419

0.345629,3.783067,9.429851,17.541763,-0.570041,-0.428459,-0.055159,7.592000,18.343419

1.116825,5.715848,7.377318,17.544704,-0.041646,-0.033029,0.168669,7.592000,18.879533

-5.227582,1.265902,9.583132,17.547646,0.099580,0.134843,0.075408,7.604000,18.879533

1.682050,6.034386,10.763877,17.556469,-0.026990,-0.326404,0.126035,7.596000,18.879533

-5.210817,-11.197780,6.148674,17.532940,-0.449067,-0.168658,0.132164,7.596000,18.879533

-5.263507,-0.113630,2.134621,17.541763,-0.205254,-0.228878,0.090063,7.580000,18.879533

-0.162116,-6.879560,12.639177,17.535881,-1.662270,-1.010946,0.434332,7.556000,18.879533

0.326468,-5.428178,14.988691,17.538822,-0.117854,-0.068468,0.726109,7.548000,18.879533

4.364471,-7.945343,9.987890,17.521175,-0.148497,-0.091384,0.813242,7.560000,18.879533

-0.710575,1.002450,5.231381,17.521175,0.009249,0.104733,0.670152,7.564000,18.879533

-1.769174,3.356754,13.623530,17.550587,0.025237,0.144435,0.440728,7.564000,18.879533

-2.648146,-3.030763,17.580103,17.527058,-0.208451,0.031455,0.022382,7.572000,18.879533

-0.346532,-0.659694,2.046005,17.541763,0.293831,-0.039957,-0.050363,7.588000,18.879533

0.307308,4.496783,10.996194,17.524117,0.052416,-0.070600,0.074875,7.568000,18.879533

0.613871,3.907608,10.881232,17.527058,-0.167149,0.068760,0.215567,7.576000,18.879533

1.025814,10.771734,8.095824,17.527058,0.268783,0.202524,0.230489,7.584000,18.879533

1.277291,4.820111,9.410690,17.527058,0.527518,0.226239,0.086333,7.596000,18.879533

1.535953,-4.230668,5.997787,17.506470,0.177387,-0.167859,0.011989,7.608000,18.879533

-3.800150,4.393797,6.357040,17.512352,-0.127180,0.126849,0.047429,7.612000,18.879533

-0.130980,2.635853,12.311059,17.524117,0.143279,0.033854,0.053025,7.604000,18.879533

-1.632658,-2.963703,16.998112,17.494705,-0.509554,-0.215555,0.049028,7.612000,18.879533

-0.116610,-5.126405,10.524375,17.529999,-0.031520,0.071425,-0.000001,7.616000,18.879533

2.994520,9.274847,9.044252,17.503529,0.722302,0.214249,0.124170,7.620000,18.664942

2.067648,-2.899037,13.089440,17.532940,-0.485306,0.319235,0.070611,7.600000,18.664942

0.168397,3.763907,7.453959,17.506470,0.649292,0.408500,0.092994,7.592000,18.664942

-3.606153,-1.787748,4.045846,17.506470,-0.259612,-0.019439,-0.150819,7.576000,18.664942

0.343234,0.032467,9.197534,17.491764,-0.165817,-0.166260,0.000532,7.568000,18.664942

2.580182,-2.791261,12.054792,17.497646,0.268783,0.090344,0.305898,7.592000,18.664942

0.685721,3.452554,6.924660,17.485882,-0.309973,-0.166793,0.491089,7.592000,18.664942

-2.964288,4.353082,7.889853,17.477058,-0.026191,0.160956,0.849748,7.584000,18.664942

-1.706903,9.847257,11.578183,17.494705,0.305022,0.338687,0.799120,7.596000,18.664942

-4.219279,1.486243,7.985653,17.500587,-0.057900,0.162288,0.534789,7.592000,18.664942

-1.436266,5.770934,9.609477,17.512352,0.820627,0.192665,0.225959,7.600000,18.664942

1.533558,0.473150,11.216536,17.482941,0.050284,-0.218753,0.104185,7.604000,18.664942

-0.092660,-2.202087,7.899433,17.506470,0.205099,-0.181182,0.103386,7.600000,18.664942

2.472406,0.394115,12.203283,17.503529,0.592002,0.207854,0.144954,7.604000,18.664942

2.944225,0.858748,10.047766,17.500587,-0.291854,-0.002385,0.235818,7.588000,18.664942

1.629359,-1.905104,7.063571,17.491764,0.443849,0.302181,0.079138,7.596000,18.664942

-4.547396,1.591624,3.394401,17.491764,-0.029388,0.097805,-0.293377,7.592000,18.664942

-1.079408,-9.025497,8.694579,17.488823,-0.686485,-0.345589,-0.452721,7.576000,18.664942

0.326468,-3.461867,19.721251,17.488823,-0.076019,0.047976,-0.318957,7.580000,18.664942

-0.109425,-0.027409,-1.309417,17.500587,-0.110659,0.022662,-0.127104,7.580000,18.664942

-0.238756,5.605677,8.936477,17.491764,0.011913,0.013602,0.381573,7.584000,18.522109

-2.514025,5.164994,9.587922,17.494705,-0.003009,-0.074597,0.468440,7.588000,18.522109

-1.326095,-6.240089,11.508728,17.474117,0.023105,-0.265650,0.663490,7.600000,18.522109

-4.137848,-0.504018,4.781117,17.494705,-0.367529,0.003210,0.546247,7.584000,18.522109

-3.443292,4.427328,14.006733,17.477058,-0.051505,-0.359978,0.165472,7.584000,18.522109

7.731869,-1.629677,7.818002,17.474117,-0.400304,-0.223816,0.449254,7.576000,18.522109

-0.851881,1.730535,9.935200,17.491764,-0.585495,0.164953,0.508676,7.572000,18.522109

-0.408803,2.880145,14.160014,17.477058,0.237607,0.285128,0.334409,7.564000,18.522109

6.285277,-6.582577,8.445498,17.480000,0.042290,-0.133485,0.384770,7.592000,18.522109

-2.066156,5.713453,6.479186,17.474117,0.448379,0.403703,0.266461,7.592000,18.522109

-3.016979,2.257440,12.976874,17.491764,-0.554319,-0.030630,0.164406,7.584000,18.522109

2.031722,-0.810580,14.313295,17.468235,0.932808,0.173480,0.374378,7.600000,18.522109

-0.260311,12.249461,5.992997,17.474117,0.554697,0.168684,0.183858,7.608000,18.522109

0.233063,1.685030,6.881549,17.468235,-0.034984,0.137241,0.220097,7.592000,18.522109

-3.129545,-3.119379,20.636147,17.485882,-0.728319,-0.184113,0.080204,7.584000,18.522109

-0.830326,4.494388,7.456354,17.459410,0.507267,0.291523,0.192385,7.592000,18.522109

3.837567,1.491034,6.242079,17.459410,0.209629,0.149232,0.510274,7.588000,18.522109

-2.664911,-3.047529,9.551997,17.459410,0.611987,0.268607,0.619257,7.592000,18.522109

-1.067433,-8.187241,11.393766,17.465292,-0.406166,-0.404744,0.506011,7.580000,18.522109

0.427059,4.559054,9.259805,17.459410,0.589338,0.224374,0.526262,7.596000,18.522109

-2.978658,4.278836,1.341869,17.459410,-0.375790,0.262478,0.309895,7.580000,18.522109

-1.544042,-0.887221,13.113391,17.456469,0.053482,0.017866,-0.133765,7.584000,18.522109

1.023419,10.968126,12.078742,17.456469,0.136884,-0.045552,-0.280053,7.584000,18.450614

4.994361,-4.589921,7.861113,17.459410,-0.106662,-0.121228,0.014921,7.580000,18.450614

-3.586993,-3.239130,9.769943,17.453527,-0.103731,0.288592,0.311760,7.564000,18.450614

-2.248178,2.128109,6.007368,17.462351,-0.528739,0.104466,0.284581,7.544000,18.450614

2.539467,-0.096864,7.329418,17.459410,0.226149,0.034120,0.350397,7.556000,18.450614

-0.823141,-4.740807,6.862390,17.468235,-0.017930,0.086347,0.232087,7.568000,18.450614

-4.379745,-8.112995,11.307546,17.459410,-1.244990,-0.362110,0.112712,7.556000,18.450614

0.946778,-7.516635,14.042659,17.453527,-0.313970,-0.003185,0.272590,7.564000,18.450614

-2.252968,2.719678,11.360236,17.447645,-0.049639,0.366399,0.229956,7.568000,18.450614

-3.488798,-3.176860,4.067402,17.432940,-0.345946,-0.016774,0.078872,7.556000,18.450614

1.203046,-7.844752,12.624806,17.438822,0.156336,-0.113500,0.032507,7.580000,18.450614

-1.424291,-2.403268,8.845466,17.444704,0.184315,0.131912,-0.023716,7.592000,18.450614

-3.484008,0.252808,6.800119,17.453527,-0.514883,0.308843,-0.267796,7.580000,18.450614

0.328863,-6.299965,8.435918,17.453527,0.040425,-0.003185,-0.404225,7.580000,18.450614

1.955082,2.575977,14.001943,17.453527,0.383895,0.187069,-0.414084,7.588000,18.450614

0.915643,-9.145248,8.450288,17.468235,-0.285192,0.154295,-0.645373,7.580000,18.450614

-2.571505,3.991434,7.209667,17.435881,0.376434,0.544396,-0.925425,7.588000,18.450614

0.862953,5.450001,5.317602,17.444704,0.439053,0.272337,-1.263566,7.592000,18.450614

1.586249,5.634418,15.405424,17.465292,0.416936,0.228105,-1.420513,7.588000,18.450614

0.534835,6.060731,8.332932,17.450586,0.004186,-0.377831,-1.405058,7.588000,18.450614

5.123693,-11.044498,5.684040,17.432940,-0.185535,-0.118297,-1.165242,7.588000,17.630552

-6.451437,5.418866,18.075871,17.435881,-0.662237,0.088745,-0.603539,7.596000,17.630552

-2.193092,2.183194,8.404782,17.456469,0.416936,0.729587,-0.099925,7.588000,17.630552

3.181332,0.188143,5.638535,17.441763,0.167261,-0.557960,0.145487,7.592000,17.630552

-0.296237,-1.526691,10.857283,17.432940,-0.124249,-0.389822,0.307230,7.576000,17.630552

-2.892438,8.201879,6.977350,17.447645,1.041524,-0.111901,0.514005,7.592000,17.630552

2.434086,-2.501464,12.136223,17.438822,-0.155425,-1.059975,0.122305,7.572000,17.630552

2.259249,2.784344,18.317768,17.447645,0.534713,-0.024235,0.610997,7.588000,17.630552

2.072438,0.494705,3.988366,17.432940,0.435056,0.191866,0.090596,7.584000,17.630552

-5.323382,-2.123051,14.643808,17.444704,-1.303345,-0.202232,-0.130834,7.560000,17.630552

-0.655490,-2.386503,14.962346,17.441763,0.133420,0.171881,-0.279520,7.576000,17.630552

-0.993187,2.504127,7.257567,17.453527,-0.115189,0.213716,-0.629919,7.580000,17.630552

-0.104635,3.244188,11.760204,17.432940,-0.328359,0.068760,-0.699465,7.572000,17.630552

-0.885411,2.748419,12.689472,17.432940,-0.040313,0.239296,-0.858010,7.568000,17.630552

-1.670978,3.536380,4.781117,17.432940,-0.023260,-0.080992,-0.859076,7.576000,17.630552

2.273619,-0.360317,12.533796,17.438822,0.204832,-0.088986,-0.706127,7.568000,17.630552

1.296451,1.699400,9.623847,17.441763,0.206165,0.196929,-0.846286,7.572000,17.630552

-2.794242,-6.939435,8.821516,17.421175,0.076930,-0.365840,-1.020020,7.580000,17.630552

-1.201554,-2.896642,6.649232,17.438822,0.135552,-0.401013,-0.650436,7.580000,17.630552

-2.511630,-1.052477,6.505531,17.435881,-0.293986,-0.421531,-0.584886,7.572000,17.630552

-0.011229,-3.037949,11.764995,17.444704,-0.201257,-0.471892,-0.526265,7.560000,17.630552

1.636544,1.059930,9.441826,17.406469,0.322875,-0.172921,-0.504148,7.568000,17.630552

1.138380,1.680240,11.194981,17.415293,-0.049373,-0.369837,-0.184926,7.564000,17.630552

-3.290011,-4.803078,17.903429,17.421175,-0.355005,-0.084456,-0.051162,7.556000,17.583289

-0.037575,3.399864,8.902946,17.409410,0.018308,-0.316811,0.335475,7.548000,17.583289

-4.063602,2.556817,9.508886,17.418234,-0.121051,-0.302689,0.455117,7.548000,17.583289

-1.761989,1.675450,8.536509,17.406469,0.786520,0.095406,0.353861,7.556000,17.583289

2.249669,-0.221405,9.525652,17.427057,-0.038448,-0.395684,0.375977,7.552000,17.583289

-0.820746,-5.423388,7.786867,17.432940,-0.418956,-0.487880,0.165472,7.544000,17.583289

1.207836,4.803346,9.753179,17.412352,-0.048574,-0.429791,0.520933,7.560000,17.583289

0.489330,0.147428,6.783354,17.415293,0.288768,0.059967,0.922758,7.568000,17.583289

-2.597850,5.536222,7.894643,17.412352,0.437987,0.097805,0.774339,7.576000,17.583289

-1.045878,3.093302,3.597978,17.409410,0.010848,-0.316012,0.342403,7.580000,17.583289

-1.450636,-2.709831,12.346985,17.415293,-0.424819,-0.299757,0.228890,7.572000,17.583289

-1.376390,-0.032199,9.966335,17.424116,0.216024,-0.099378,-0.101257,7.580000,17.583289

2.474801,-0.180690,8.443103,17.406469,0.149142,-0.213424,0.054890,7.564000,17.583289

0.175582,-3.306191,14.049844,17.409410,-0.236163,-0.025301,0.445524,7.556000,17.583289

0.879718,1.313802,10.337564,17.394705,0.251996,-0.027966,0.583019,7.540000,17.583289

3.066371,0.765343,6.558222,17.415293,0.413739,0.034919,0.566498,7.548000,17.583289

-0.387247,2.132899,6.876760,17.403528,0.080927,-0.025301,0.111114,7.536000,17.583289

2.117943,-5.121615,16.449652,17.400587,0.375368,-0.323473,-0.017588,7.544000,17.583289

0.525255,2.803504,7.528205,17.403528,-0.109327,0.057835,-0.295775,7.556000,17.583289

-0.684230,6.281073,3.133344,17.394705,0.081460,0.091409,-0.000801,7.556000,17.583289

-0.296237,6.384058,7.707831,17.379999,0.296495,-0.086588,0.162807,7.560000,17.583289

1.121615,-0.860876,7.202482,17.388823,0.491279,0.029057,0.168936,7.584000,17.583289

-0.717760,-0.743520,7.489884,17.391764,-0.043777,-0.233408,0.002397,7.576000,17.583289

0.204322,-1.667997,9.997471,17.391764,0.137950,-0.189975,0.310427,7.584000,16.680548

-0.487838,-5.203046,12.598461,17.400587,-0.298249,-0.349852,0.378375,7.580000,16.680548

0.894088,7.737245,7.382109,17.403528,0.370572,0.111128,0.702127,7.576000,16.680548

1.030604,-1.538666,14.830620,17.388823,0.538710,0.203057,0.936081,7.580000,16.680548

-1.740433,-1.854809,9.501701,17.400587,-0.075220,-0.091917,0.906504,7.584000,16.680548

-2.224227,1.309012,5.643324,17.397646,-0.106129,0.017066,0.805781,7.588000,16.680548

-0.923732,3.040611,18.176462,17.391764,-0.084546,-0.092450,0.833227,7.592000,16.680548

-0.032785,1.783226,9.147239,17.391764,0.011913,0.149232,0.476167,7.592000,16.680548

5.803878,6.053546,4.364384,17.377058,0.330070,0.098604,0.100988,7.596000,16.680548

3.473524,2.290970,5.030200,17.394705,0.434256,0.361336,-0.111649,7.604000,16.680548

-3.828890,1.340147,4.675736,17.388823,0.275445,0.389847,-0.284850,7.612000,16.680548

5.806273,-1.145883,12.160173,17.406469,0.031099,-0.478554,-0.512409,7.612000,16.680548

3.729791,-2.190112,9.290939,17.382940,0.421733,0.477514,-0.195851,7.612000,16.680548

0.898878,8.652143,10.016630,17.394705,0.463034,0.169483,-0.253407,7.612000,16.680548

0.553995,5.495506,10.021420,17.397646,0.135019,0.408500,-0.069548,7.616000,16.680548

1.337167,-2.484699,12.050002,17.391764,-0.535401,0.097805,0.179061,7.608000,16.680548

-5.589230,1.409603,12.591276,17.385881,-0.032319,0.453532,0.467374,7.596000,16.680548

1.198256,-0.307626,10.852492,17.379999,-0.085345,0.083948,0.479365,7.596000,16.680548

2.886744,2.908885,7.796447,17.382940,0.013246,0.248356,0.515604,7.604000,16.680548

-1.675768,0.549791,8.787985,17.385881,0.051350,0.488172,0.177996,7.600000,16.680548

-0.569269,1.498219,14.636623,17.362352,-0.417091,0.099936,-0.279254,7.600000,19.623743

2.153868,0.856353,4.742797,17.385881,-0.251618,0.281664,-0.460449,7.596000,19.623743

-0.487838,6.441539,8.989167,17.356470,0.619981,0.420224,-0.767413,7.600000,19.623743

1.126405,7.253451,6.840834,17.385881,-0.194062,0.199327,-0.696268,7.600000,19.623743

0.788707,2.633458,9.293335,17.374117,0.291433,0.580901,-0.427407,7.612000,19.623743

-0.339347,-2.676301,11.863191,17.379999,-0.707269,-0.030897,-0.246479,7.604000,19.623743

-2.006281,-4.453405,9.698093,17.368235,0.228014,0.107131,-0.035974,7.616000,19.623743

-3.493588,0.887489,4.948769,17.371176,0.040958,0.178543,0.065282,7.612000,19.623743

0.501305,-2.072756,5.044569,17.368235,-0.139970,-0.154535,0.092994,7.600000,19.623743

-1.376390,-1.332695,11.089600,17.371176,0.232011,0.048242,0.093793,7.608000,19.623743

-2.375113,-0.623769,9.882509,17.371176,0.651157,0.019731,-0.084736,7.624000,19.623743

-3.689979,-0.793815,3.574028,17.371176,-0.186335,-0.331999,-0.009860,7.612000,19.623743

2.405345,3.416629,9.130473,17.350588,0.458771,0.103400,0.035971,7.612000,19.623743

1.138380,4.990157,4.417075,17.338821,0.085723,-0.017840,-0.354130,7.620000,19.623743

3.497474,-1.447655,2.486689,17.356470,0.296229,-0.274444,-0.398363,7.624000,19.623743

-1.745224,8.340790,17.970490,17.341763,0.145678,0.060233,-0.377845,7.632000,19.623743

4.268671,7.004369,3.142924,17.350588,0.787852,0.255550,-0.212372,7.636000,19.623743

5.569166,-2.060781,8.256291,17.356470,0.241338,-0.743418,-0.416216,7.632000,19.623743

-1.292565,-0.310021,12.675102,17.353529,-0.033385,-0.358113,-0.012259,7.640000,19.623743

-5.162916,4.211776,13.065491,17.338821,-0.313171,0.162022,0.093793,7.632000,20.816166

-0.217201,6.039176,12.562536,17.344706,0.124893,0.267275,0.264063,7.636000,20.816166

-3.227741,4.966207,1.071232,17.341763,0.055080,0.293122,0.151616,7.632000,20.816166

-0.142955,0.540211,20.118822,17.350588,-0.548457,0.075422,0.214501,7.640000,20.816166

-0.926127,-0.424982,4.464975,17.359411,0.135818,0.124184,0.031974,7.644000,20.816166

-1.191974,1.160521,13.843872,17.338821,-0.080549,0.053838,-0.199315,7.640000,20.816166

-3.210975,-0.343551,13.863032,17.332939,-0.599352,-0.043421,-0.359459,7.636000,20.816166

0.779127,0.928204,10.366303,17.332939,0.145145,0.323232,-0.267796,7.644000,20.816166

-1.390761,1.685030,13.951648,17.341763,-0.006739,0.241161,-0.405824,7.640000,20.816166

1.361117,-1.667997,8.445498,17.347647,0.193907,0.098604,-0.235821,7.644000,20.816166

-0.957262,-0.348342,10.620175,17.341763,-0.412561,-0.189709,-0.317092,7.636000,20.816166

0.977914,-3.459472,3.499782,17.353529,0.181384,0.106065,-0.419413,7.640000,20.816166

0.623451,11.727347,10.924343,17.344706,0.368440,0.348546,-0.373848,7.644000,20.816166

2.321520,-6.175424,9.877720,17.347647,-0.200457,0.060766,-0.417282,7.636000,20.816166

0.987494,-4.482145,14.488132,17.335880,0.245867,-0.071133,-0.407156,7.640000,20.816166

0.240248,-1.845229,11.096785,17.341763,-0.422953,-0.221418,-0.362923,7.640000,20.816166

0.163607,3.098092,15.755097,17.312351,0.206697,-0.047684,-0.164675,7.636000,22.627350

-2.013466,-5.270106,10.023815,17.338821,0.427595,0.066895,-0.154283,7.640000,22.627350

-0.353717,2.207144,10.186677,17.344706,0.203766,-0.193972,-0.146023,7.636000,22.627350

0.154027,-6.537072,6.754613,17.341763,-0.014733,-0.175586,-0.067150,7.636000,22.627350

-1.249454,-1.397360,8.534113,17.327057,-0.161820,-0.147075,-0.261667,7.628000,22.627350

-0.104635,7.574383,12.294294,17.327057,0.487815,0.374126,-0.138828,7.632000,22.627350

-0.205226,2.662198,6.349855,17.318233,0.419068,-0.093516,-0.062087,7.636000,22.627350

0.503700,2.803504,15.786233,17.338821,-0.286525,-0.173454,0.035705,7.628000,22.627350

-3.536698,-5.519188,10.009445,17.335880,-0.115989,-0.095381,-0.026914,7.632000,22.627350

-3.115175,1.103040,8.558064,17.312351,-0.206319,-0.039957,0.065282,7.624000,22.627350

-3.407367,-5.320402,13.484619,17.327057,-0.445070,-0.002385,0.157212,7.616000,22.627350

-1.031508,-2.314652,11.453642,17.315292,-0.343015,-0.063405,-0.044501,7.616000,22.627350

0.336049,2.065838,6.871969,17.318233,-0.329425,0.042114,0.033040,7.608000,22.627350

0.201927,2.645433,9.444221,17.329998,0.140082,-0.024502,0.019983,7.612000,22.627350

-1.256639,3.011871,8.491003,17.324116,0.506201,0.261945,-0.120442,7.624000,22.627350

-0.844696,0.571346,8.790380,17.332939,-0.382718,-0.147341,-0.191321,7.612000,22.627350

0.185162,0.961734,10.787827,17.324116,-0.013401,-0.011978,-0.143891,7.612000,22.627350

1.899996,-0.903986,7.633585,17.321175,0.695390,0.108463,-0.103122,7.628000,22.627350

-2.423014,0.990474,10.541140,17.332939,-0.372592,0.141504,-0.051695,7.620000,20.477599

0.553995,-6.012563,11.987732,17.309410,-0.667033,-0.292563,-0.020252,7.600000,20.477599

-2.025441,3.785462,12.323034,17.321175,0.263987,0.332025,-0.051162,7.616000,20.477599

-1.953590,-0.913566,6.625282,17.332939,0.152872,0.021863,-0.180929,7.616000,20.477599

1.353932,0.307894,10.603411,17.315292,0.244269,0.075155,-0.001067,7.620000,20.477599

0.343234,-2.022460,8.608358,17.315292,-0.090142,0.004010,0.009325,7.604000,20.477599

-1.287775,2.068233,8.572433,17.327057,0.216024,0.204656,-0.062886,7.608000,20.477599

0.546810,2.631063,9.654983,17.321175,0.085723,0.224108,-0.090066,7.612000,20.477599

-0.969237,-0.173505,8.215575,17.312351,0.547237,0.256350,-0.198249,7.620000,20.477599

-1.079408,-1.768588,12.567327,17.332939,-0.539664,-0.005316,-0.219300,7.608000,20.477599

-1.014742,-2.487094,8.035949,17.327057,0.366042,0.285394,-0.398896,7.620000,20.477599

-3.062484,-0.410612,8.802356,17.321175,-0.215646,0.148965,-0.779937,7.608000,20.477599

2.563417,-3.126564,9.147239,17.327057,0.168593,0.013336,-1.190023,7.604000,20.477599

0.063016,-0.738730,11.329102,17.321175,-0.729385,-0.216355,-1.219067,7.592000,20.477599

0.594711,-0.997392,10.337564,17.309410,0.552832,0.434613,-1.010960,7.600000,20.477599

-3.153495,4.839271,9.379556,17.324116,0.501405,0.143103,-1.141260,7.616000,20.477599

-0.372877,0.401300,3.490202,17.312351,-0.479443,-0.210759,-1.061321,7.600000,20.477599

2.287989,1.086275,16.289186,17.318233,0.249598,-0.060208,-1.205744,7.608000,20.477599

-2.262548,1.014425,9.769943,17.309410,0.020174,-0.162796,-1.137263,7.604000,20.477599

-0.444728,4.432117,10.181887,17.329998,-0.158889,0.112726,-1.047998,7.612000,20.477599

3.710631,8.738362,5.966652,17.315292,0.263187,-0.125225,-1.215337,7.612000,20.477599

-2.054181,2.884935,7.121051,17.318233,-0.129312,-0.385825,-0.974988,7.604000,19.211762

0.211507,1.730535,13.508569,17.312351,0.943733,-0.285635,-1.018687,7.616000,19.211762

5.641017,-4.386344,6.733058,17.309410,0.314881,-0.847871,-0.781003,7.628000,19.211762

-4.456386,-3.763639,13.465459,17.327057,-0.201257,-0.999488,-0.268063,7.616000,19.211762

-8.513549,-3.095429,17.067568,17.321175,-0.155692,-0.399947,0.363720,7.600000,19.211762

1.442548,6.429564,5.298441,17.332939,0.844609,-0.397016,0.876927,7.604000,19.211762

3.159777,0.681517,6.582172,17.332939,0.786520,-0.295228,0.941677,7.608000,19.211762

-3.292406,4.204591,9.449011,17.338821,1.033264,-0.728762,0.676813,7.608000,19.211762

1.586249,3.114857,1.346659,17.338821,0.072933,-0.950992,1.135395,7.596000,19.211762

-5.747301,0.094737,11.446457,17.350588,-0.425352,-0.325871,1.895080,7.572000,19.211762

-0.497418,-2.683486,14.804275,17.359411,-0.192197,-0.704248,1.885754,7.588000,19.211762

-2.327213,-1.524296,8.732900,17.341763,-0.022194,-0.478287,1.554274,7.588000,19.211762

3.023261,-5.701210,16.236496,17.347647,-0.417891,-0.864125,1.745328,7.584000,19.211762

3.344193,4.494388,11.024934,17.350588,0.153405,0.046644,1.797022,7.600000,19.211762

-2.324818,5.105118,9.949570,17.341763,1.215258,0.296319,1.318455,7.612000,19.211762

2.860399,-5.284477,8.011999,17.335880,0.301825,-0.365574,0.704259,7.628000,19.211762

-3.680399,0.638407,-5.876719,17.332939,-0.323563,0.167351,-0.000001,7.624000,19.211762

4.934486,-1.588962,12.100298,17.350588,0.059344,-0.112168,0.290176,7.620000,19.211762

1.943107,4.824901,20.329584,17.332939,0.006318,0.225440,0.391432,7.620000,19.211762

-2.811007,-3.921711,-4.094825,17.332939,-0.534868,0.101002,0.375977,7.620000,19.211762

-2.140402,-4.953964,32.829193,17.341763,-0.370993,0.376524,0.938213,7.604000,19.077074

5.966740,0.259993,17.077148,17.368235,0.799044,0.176944,0.545447,7.632000,19.077074

-5.079091,5.746984,-6.585645,17.344706,1.377001,0.205189,0.175065,7.628000,19.077074

-0.923732,-4.439034,4.084167,17.356470,-1.324662,-0.527316,-0.056491,7.608000,19.077074

-4.834799,-6.371816,24.705286,17.362352,-0.288656,0.099670,0.375977,7.600000,19.077074

0.906063,14.761837,6.527087,17.371176,1.649858,1.369630,0.377576,7.624000,19.077074

5.415885,-10.816972,3.221960,17.356470,-2.125915,-2.037359,-0.146289,7.604000,19.077074

1.823356,0.415670,10.354328,17.365294,1.071635,0.253152,0.791392,7.616000,19.077074

0.731227,18.237009,9.887300,17.353529,1.914989,1.135676,0.106051,7.628000,19.077074

6.302042,-5.085690,-0.087957,17.382940,-1.476813,-0.240869,-0.111916,7.620000,19.077074

-0.463888,-1.030922,3.859035,17.388823,1.392189,0.826579,0.498816,7.632000,19.077074

-5.692215,9.294007,21.119942,17.382940,-0.555652,-0.221950,-0.187591,7.628000,19.077074

-1.405131,-8.599184,3.315365,17.385881,-0.473048,0.244359,0.563567,7.624000,19.077074

-3.290011,5.845179,9.611873,17.403528,0.267717,0.713599,0.908902,7.628000,19.077074

1.962267,-1.737453,12.411650,17.391764,-0.106129,-0.240336,0.656029,7.632000,19.077074

-1.445846,-1.318324,14.138459,17.391764,-0.750436,0.345615,0.808446,7.624000,19.077074

-3.316356,-0.487253,11.568604,17.406469,-0.177808,0.698411,0.942210,7.628000,19.077074

0.913248,4.444093,14.500107,17.406469,0.626642,0.776751,0.862271,7.632000,19.077074

0.388739,0.736602,5.387057,17.424116,-0.159156,0.291789,0.449787,7.624000,19.077074

1.531163,-1.531481,11.937436,17.415293,-0.070157,0.132978,0.041833,7.628000,20.355902

0.568365,-0.439352,17.479511,17.391764,0.278109,0.286726,-0.250743,7.632000,20.355902

1.444943,-1.957795,-0.885499,17.424116,0.255727,0.042647,-0.515873,7.636000,20.355902

-0.914152,4.841666,9.791499,17.391764,0.805972,0.610745,-0.557974,7.640000,20.355902

3.447179,-1.272819,8.888577,17.415293,-0.089076,0.050641,-0.391435,7.644000,20.355902

-0.624354,5.605677,8.546088,17.403528,0.275445,0.435146,-0.209174,7.640000,20.355902

0.034276,-0.506413,14.684524,17.394705,-0.291321,0.056503,0.032774,7.636000,20.355902

2.316730,-1.931449,-1.453119,17.388823,0.304489,0.280864,-0.027713,7.640000,20.355902

-4.806058,9.262872,11.065649,17.391764,0.017243,0.138573,-0.270194,7.640000,20.355902

2.582577,-5.935922,14.207914,17.379999,-0.333156,-0.217954,-0.381309,7.632000,20.355902

-4.760553,7.404337,7.631191,17.365294,-0.204454,0.156693,-0.486295,7.628000,20.355902

3.229232,-9.648202,9.762758,17.377058,-0.988920,-0.494275,-0.564102,7.616000,20.355902

0.367184,-2.405663,13.906142,17.362352,-0.054169,-0.015176,-0.683744,7.624000,20.355902

3.090321,3.759117,8.562854,17.379999,-0.014999,-0.031963,-0.625655,7.620000,20.355902

1.112035,0.420460,8.258686,17.368235,0.226949,0.357872,-0.509478,7.620000,20.355902

-1.105753,4.051310,4.917634,17.371176,0.268250,-0.044220,-0.524666,7.628000,20.355902

-2.030231,2.611902,11.547048,17.344706,-0.171946,-0.128955,-0.444461,7.620000,20.355902

0.903668,3.634576,6.503137,17.353529,0.824091,-0.088453,-0.314161,7.640000,20.355902

0.858163,-2.230827,4.405099,17.353529,0.231212,-0.330934,-0.020252,7.644000,20.355902

-4.362980,3.943534,11.297966,17.350588,0.002587,-0.130021,0.177196,7.640000,20.957575

1.373092,-1.332695,-0.586121,17.362352,-0.340350,-0.271512,0.499349,7.636000,20.957575

-1.783544,2.956785,13.783997,17.362352,0.738024,0.321100,0.646170,7.652000,20.957575

-1.517697,8.180324,9.918435,17.365294,0.050018,-0.401546,0.344002,7.656000,20.957575

-1.062643,-6.376606,14.167199,17.335880,-0.068825,-0.151071,0.549178,7.640000,20.957575

-1.235084,-2.585290,13.510964,17.344706,-0.297716,-0.115365,0.541983,7.640000,20.957575

1.406622,6.166112,6.694738,17.344706,0.010315,0.256350,0.488424,7.632000,20.957575

0.759967,-3.296611,14.382751,17.332939,0.027635,0.148965,0.478299,7.632000,20.957575

-2.820587,-4.980309,10.617781,17.335880,-0.001410,-0.108171,-0.075943,7.632000,20.957575

4.041144,4.082445,9.396320,17.335880,0.125693,-0.136150,-0.059955,7.624000,20.957575

-1.994306,5.332645,8.780800,17.332939,0.157135,0.382386,0.086333,7.624000,20.957575

0.486935,-3.069084,11.075230,17.315292,0.073999,-0.035693,-0.242749,7.628000,20.957575

1.947897,7.107355,12.308664,17.312351,0.495809,0.142837,-0.050896,7.628000,20.957575

1.418597,4.228541,3.595583,17.312351,-0.475713,0.043713,0.104185,7.608000,20.957575

1.859281,-3.560063,8.713739,17.309410,0.585874,-0.129222,-0.112448,7.620000,20.957575

-2.514025,2.729259,16.715500,17.321175,0.324474,0.119388,-0.031710,7.624000,20.957575

4.924906,-5.729950,-0.557381,17.327057,-0.853024,-0.616315,0.291509,7.612000,20.957575

-5.373678,3.145992,15.623371,17.321175,0.170991,0.525477,0.558238,7.604000,20.957575

1.684445,-5.179096,16.387383,17.318233,-0.176209,-0.116431,0.316290,7.612000,20.957575

-2.037416,1.376073,8.414362,17.309410,0.474759,0.118322,0.345867,7.608000,20.154228

0.158817,0.837193,7.056386,17.315292,-0.474381,-0.075663,0.132431,7.592000,20.154228

0.534835,-4.889298,12.229629,17.321175,0.074799,-0.046885,0.308562,7.588000,20.154228

0.357604,-4.221088,11.075230,17.306469,-0.218310,-0.126290,0.275521,7.592000,20.154228

-1.306935,-4.192348,8.979588,17.312351,-0.362733,-0.276842,0.291775,7.580000,20.154228

-0.890202,1.031190,11.118340,17.309410,0.143812,0.020264,0.132164,7.592000,20.154228

-3.814520,-0.983022,11.865585,17.285881,0.157668,-0.023702,-0.351732,7.592000,20.154228

2.999310,8.764708,4.752377,17.294704,0.466498,0.012270,-0.271527,7.596000,20.154228

-1.982330,1.759276,8.914922,17.288822,-0.201790,0.122319,-0.263000,7.592000,20.154228

-0.406408,-0.257331,14.234260,17.300587,0.128357,0.021063,0.089264,7.592000,20.154228

0.166002,2.152059,9.437036,17.282940,0.348988,0.036785,0.293374,7.596000,20.154228

0.542020,-0.714779,8.610754,17.279999,0.099047,-0.114566,0.610731,7.588000,20.154228

-1.369205,1.922137,5.626559,17.279999,-0.021927,0.090077,0.983245,7.576000,20.154228

-3.479218,-0.396242,14.926420,17.282940,0.152872,-0.041289,0.827098,7.576000,20.154228

3.995638,-5.859281,10.639336,17.282940,0.150474,-0.193172,0.813775,7.588000,20.154228

-2.466124,2.468201,3.906935,17.271175,0.663947,0.410631,0.746094,7.592000,20.154228

1.629359,1.790411,6.095983,17.285881,-0.073888,-0.317611,0.524397,7.580000,20.154228

0.431849,-1.114748,15.187478,17.288822,-0.186868,0.389581,0.747426,7.568000,20.154228

-0.423173,-0.494438,12.404465,17.282940,0.073200,0.087412,0.681610,7.556000,20.154228

4.467457,-3.797170,7.616820,17.291763,-0.113058,0.037051,0.550777,7.564000,20.154228

-2.655331,5.117093,9.152028,17.259411,0.425463,0.644053,0.419411,7.572000,20.154228

-1.256639,2.032308,9.724438,17.271175,-0.354206,0.324298,0.051426,7.560000,20.154228

-4.468361,-6.055673,11.302756,17.282940,-0.700607,0.065296,-0.206510,7.548000,20.154228

-0.942892,-2.065571,10.842913,17.285881,-0.185535,0.187869,-0.187591,7.548000,16.617290

3.511845,-0.242961,7.145002,17.274117,-0.094405,0.136708,-0.195851,7.532000,16.617290

-0.722550,3.083721,16.720289,17.277058,0.241071,0.472717,-0.238219,7.548000,16.617290

1.876046,-1.246474,6.524692,17.259411,0.193641,0.379455,-0.289646,7.544000,16.617290

0.292938,-2.357763,10.466894,17.265293,-0.230301,0.056769,-0.354929,7.548000,16.617290

-1.972750,3.675291,9.492122,17.271175,-0.221508,0.259814,-0.282718,7.524000,16.617290

2.228114,-2.496674,9.738809,17.262352,-0.255348,0.186004,-0.187857,7.516000,16.617290

-2.384694,-0.068124,16.356247,17.247646,-0.072822,0.325097,-0.198782,7.516000,16.617290

-0.851881,-2.530204,7.971283,17.265293,-0.030721,0.090077,-0.510277,7.512000,16.617290

1.935922,-1.766193,10.260922,17.282940,0.257592,0.157226,-0.601674,7.516000,16.617290

-0.581244,5.517062,2.944137,17.285881,0.539776,0.358405,-0.735971,7.532000,16.617290

1.004259,2.508917,8.162886,17.265293,-0.352607,-0.239004,-0.955802,7.492000,16.617290

3.329823,-3.100219,10.548325,17.271175,-0.016598,0.094341,-0.752758,7.512000,16.617290

0.086966,2.367611,10.330379,17.262352,0.291965,0.394910,-0.539321,7.516000,16.617290

-0.245941,-1.804513,8.249105,17.268234,-0.202589,0.023728,-0.256072,7.512000,16.617290

-0.418383,0.760553,12.854729,17.250587,0.515527,0.292322,0.100721,7.512000,16.617290

-0.377667,-4.161212,5.870851,17.238823,-0.105064,0.025327,-0.020785,7.504000,16.617290

-0.274681,1.910162,10.718371,17.247646,-0.209517,0.136708,-0.162810,7.484000,16.617290

-0.286657,3.234608,9.834609,17.259411,0.015910,0.278466,-0.439664,7.496000,16.617290

0.022301,-1.543456,7.588080,17.268234,-0.414160,-0.197969,-1.015756,7.476000,16.617290

1.083295,3.464530,11.230906,17.235882,0.078795,0.200393,-1.418914,7.480000,16.617290

1.452128,-2.664325,9.542417,17.253529,-0.418423,-0.036759,-1.526032,7.460000,16.617290

-0.274681,-0.367502,11.709909,17.250587,0.016976,0.299783,-1.906007,7.440000,16.617290

1.124010,-0.872851,11.736255,17.241764,0.162198,0.088212,-2.074412,7.460000,16.617290

-0.356112,0.521051,7.382109,17.244705,0.038826,0.121786,-2.018988,7.464000,16.617290

-0.827931,-1.545851,10.069321,17.256470,-0.224172,0.019198,-2.210841,7.432000,16.617290

-0.176486,0.923414,11.884746,17.244705,-0.077884,0.030390,-2.191122,7.440000,16.617290

0.292938,-2.111076,12.814013,17.262352,0.274112,-0.035427,-2.160213,7.468000,16.617290

-0.906967,-0.887221,9.405901,17.238823,0.449445,0.003477,-1.838326,7.496000,16.617290

-2.094896,3.107671,11.331496,17.230000,0.421466,-0.175053,-1.105288,7.504000,16.617290

-4.408485,2.561607,7.444379,17.244705,0.247733,-0.219019,-0.782602,7.512000,12.759062

2.077228,-2.767311,10.811777,17.259411,0.339396,-0.207828,-0.699732,7.508000,12.759062

2.470011,-1.701528,15.352734,17.247646,0.335399,-0.330134,-0.434069,7.496000,12.759062

-3.891161,-1.311139,9.815449,17.250587,0.696189,-0.134817,0.054623,7.500000,12.759062

-2.073341,-5.116825,8.819120,17.241764,0.231478,-0.350652,0.480697,7.476000,12.759062

-0.954867,-1.737453,10.521979,17.241764,0.222685,-0.280839,0.617659,7.464000,12.759062

-0.119005,-0.324391,5.346342,17.253529,0.308220,-0.312281,0.731705,7.464000,12.759062

-4.255204,-0.820160,9.228669,17.238823,0.080128,-0.185978,0.507077,7.428000,12.759062

-1.656608,1.095855,10.986613,17.253529,0.234143,-0.269114,0.129499,7.432000,12.759062

0.712067,0.827613,7.616820,17.227058,-0.019796,-0.157733,-0.050363,7.396000,12.759062

2.196979,-1.035712,12.950529,17.235882,0.122762,-0.116698,-0.176666,7.396000,12.759062

0.527650,-1.893129,8.364067,17.256470,0.156603,0.046377,-0.095395,7.384000,12.759062

-1.029113,-1.193783,13.345708,17.241764,0.114501,0.002944,-0.202246,7.356000,12.759062

-2.607430,-1.342275,8.323352,17.262352,0.178719,-0.050349,-0.243015,7.356000,12.759062

-0.404013,-2.750546,11.381792,17.262352,0.033230,-0.282704,-0.208109,7.296000,12.759062

1.591039,0.612061,9.662168,17.265293,0.204033,-0.035160,-0.100191,7.292000,12.759062

-0.952472,1.055140,7.377318,17.259411,0.123295,-0.096713,-0.147888,7.272000,12.759062

-0.308212,0.087552,9.331655,17.253529,0.127825,-0.158799,-0.359726,7.212000,12.759062

0.700091,0.482730,11.523098,17.247646,0.122762,-0.172122,-0.395432,7.244000,12.759062

-2.449359,1.364097,6.776169,17.256470,0.227482,-0.113500,-0.161478,7.272000,12.759062

-1.788334,-1.919474,7.329418,17.265293,-0.074953,-0.295494,-0.108984,7.176000,12.759062

0.680931,0.178563,16.569403,17.221176,0.082526,-0.255791,0.040235,7.160000,12.759062

-0.116610,-0.872851,11.714700,17.244705,0.023371,-0.040756,-0.013324,7.016000,12.759062

-1.160839,-2.039225,7.327023,17.256470,-0.104797,-0.252860,0.012789,6.820000,12.759062

3.645966,-6.719093,18.993164,17.238823,-0.073888,-0.171856,0.240881,6.620000,12.759062

4.010008,-1.251264,10.033396,17.253529,0.302624,0.069027,0.232354,6.368000,12.759062

-0.291447,0.858748,6.740243,17.241764,0.106241,-0.005849,0.176930,6.184000,12.759062

0.448614,-2.954123,11.250066,17.250587,0.025769,-0.048217,0.022382,6.000000,12.759062

1.183886,-2.956518,11.434483,17.256470,0.116633,-0.013310,-0.085269,5.820000,12.759062

-0.324977,-0.987812,9.053833,17.247646,0.185913,0.049042,-0.116179,5.616000,12.759062

-0.370482,3.244188,8.888577,17.259411,0.086256,-0.051681,-0.135098,5.440000,12.759062

0.702486,2.975945,8.392807,17.256470,0.124094,0.037850,-0.051962,5.256000,12.759062

-0.770451,2.005963,8.970007,17.247646,-0.039780,-0.002385,-0.026914,5.084000,12.759062

-1.522487,0.145033,10.253737,17.244705,0.005252,-0.017307,-0.055692,4.916000,12.759062

-2.061366,0.077972,9.736413,17.268234,0.060676,-0.091117,-0.093263,4.748000,12.759062

-1.469796,1.344937,9.592712,17.259411,0.083858,-0.115099,-0.053560,4.584000,12.759062

-0.181276,1.522169,9.336445,17.262352,0.075598,-0.163862,0.047962,4.420000,12.759062

0.051041,1.411998,9.999866,17.259411,0.063341,-0.108437,0.110847,4.252000,12.759062

0.060621,1.371283,9.563972,17.235882,0.085457,-0.146275,0.069812,4.092000,12.759062

0.728832,1.668265,9.848979,17.232941,0.060942,-0.096447,-0.014390,3.908000,12.759062

0.276173,1.014425,9.734018,17.244705,0.044422,-0.100710,-0.043435,3.756000,12.759062

0.460589,0.628826,9.839399,17.247646,0.063341,-0.102575,-0.069548,3.600000,12.759062

0.736017,1.713770,10.045371,17.244705,0.100645,-0.078860,-0.068749,3.456000,12.759062

0.268988,2.798714,9.358000,17.241764,0.064140,-0.024768,-0.072479,3.316000,12.759062

0.166002,2.111343,9.185558,17.241764,0.023904,-0.012777,0.114844,3.236000,12.759062

-0.780031,1.565279,9.674143,17.250587,-0.007272,0.019997,0.146553,3.168000,12.759062

0.012721,1.045560,9.080178,17.227058,0.006851,-0.039957,0.168137,3.108000,12.759062

-0.104635,0.736602,9.549602,17.244705,0.025237,-0.011978,0.203576,3.048000,12.759062

0.446219,1.550909,9.779524,17.235882,0.054814,-0.023169,0.180927,2.988000,12.759062

0.434244,1.855076,9.578342,17.238823,0.044422,-0.006116,0.237417,2.916000,12.759062

0.046251,1.982013,9.537626,17.250587,0.038293,0.000812,0.261132,2.856000,12.759062

-0.236361,1.953272,9.238249,17.247646,0.021240,0.012004,0.359457,2.800000,12.759062

-0.083080,1.522169,9.326865,17.256470,0.030566,-0.008780,0.434599,2.748000,12.759062

-0.413593,1.536539,9.621452,17.250587,0.026835,0.007207,0.498283,2.692000,12.759062

-0.404013,1.783226,9.592712,17.256470,0.032165,-0.027966,0.595276,2.636000,12.759062

-0.600404,1.498219,9.513677,17.238823,0.034829,-0.042888,0.706124,2.564000,12.759062

0.173187,1.852681,8.977192,17.256470,0.038293,-0.046618,0.754354,2.512000,12.759062

0.515675,1.996382,9.631032,17.247646,0.025503,-0.045819,0.830829,2.460000,12.759062

0.221088,1.445528,9.396320,17.244705,0.026036,-0.052214,0.818305,2.408000,12.759062

1.140775,1.795201,9.381950,17.247646,0.024171,-0.055678,0.707989,2.344000,12.759062

1.035394,1.723350,9.669353,17.232941,0.013246,-0.046352,0.613662,2.296000,12.759062

1.389857,1.754486,9.434641,17.256470,0.010048,-0.027166,0.424207,2.244000,12.759062

1.226996,1.701795,9.346025,17.221176,-0.001143,-0.028232,0.225959,2.196000,12.759062

1.504818,1.637130,9.518467,17.230000,-0.012868,-0.011445,0.001331,2.144000,12.759062

1.313216,1.603599,9.247829,17.235882,-0.005673,0.001878,-0.161211,2.100000,12.759062

0.999469,1.718560,9.542417,17.244705,-0.025924,0.020797,-0.212905,2.052000,12.759062

0.831818,1.649105,9.566367,17.230000,-0.024858,0.028258,-0.199049,2.008000,12.759062

0.616266,1.514984,9.504096,17.250587,-0.014999,0.027725,-0.135897,1.960000,12.759062

0.791102,1.455108,9.604687,17.238823,-0.019263,0.026393,-0.055692,1.920000,12.759062

0.498910,1.457503,9.532837,17.241764,-0.016598,0.042380,0.023447,1.864000,12.759062

0.659376,1.277877,9.429851,17.244705,-0.015799,0.031455,0.037303,1.824000,12.759062

0.822237,1.685030,9.465776,17.232941,-0.015266,0.042114,0.019184,1.780000,12.759062

0.764757,1.723350,9.446616,17.244705,-0.016865,0.047177,0.017052,1.736000,12.759062

0.017511,1.215606,9.767549,17.250587,-0.007805,0.039183,-0.035174,1.704000,12.759062

0.419874,1.371283,9.437036,17.238823,-0.007005,0.028524,-0.061821,1.664000,12.759062

0.412689,1.625154,9.592712,17.238823,-0.006473,0.016800,-0.018920,1.624000,12.759062

0.494120,1.493428,9.583132,17.241764,-0.001410,0.012803,0.001065,1.588000,12.759062

0.704881,1.582044,9.523256,17.227058,-0.006473,0.015734,0.022648,1.552000,12.759062

0.597106,1.577254,9.681328,17.232941,-0.008604,0.021863,0.018651,1.512000,12.759062

0.647401,1.479059,9.425060,17.244705,-0.003541,0.013602,0.015720,1.472000,12.759062

0.510885,1.565279,9.530441,17.241764,-0.003275,0.027458,0.010391,1.436000,12.759062

0.168397,1.524564,9.520862,17.238823,-0.004607,0.016001,0.010924,1.404000,12.759062

0.381554,1.622760,9.616662,17.247646,-0.003808,0.015468,-0.005331,1.372000,12.759062

0.319283,1.720955,9.472961,17.230000,-0.000610,0.001079,-0.007462,1.336000,12.759062

0.477355,1.562884,9.659773,17.238823,-0.003541,0.001345,0.003196,1.304000,12.759062

0.501305,1.344937,9.575947,17.247646,-0.002742,-0.002652,-0.003732,1.276000,12.759062

0.206717,1.493428,9.391530,17.244705,0.002854,-0.006116,-0.002133,1.248000,12.759062

0.496515,1.653895,9.499307,17.244705,-0.000610,-0.017840,0.029310,1.220000,12.759062

0.692906,1.538934,9.530441,17.235882,-0.000344,-0.007182,0.026378,1.196000,12.759062

0.427059,1.459898,9.530441,17.244705,0.002321,-0.017041,0.004262,1.176000,12.759062

0.486935,1.661080,9.638218,17.232941,0.003920,-0.014110,0.010657,1.152000,12.759062

0.573155,1.845496,9.506492,17.247646,0.000722,-0.011978,0.041300,1.136000,12.759062

0.623451,1.685030,9.410690,17.238823,-0.002476,-0.013577,0.070611,1.120000,12.759062

0.841398,1.423973,9.549602,17.221176,-0.006739,-0.009846,0.034905,1.108000,12.759062

0.965939,1.385653,9.599897,17.241764,-0.001410,0.001345,-0.018920,1.092000,12.759062

0.621056,1.596414,9.384345,17.218235,-0.001410,0.011204,-0.052494,1.080000,12.759062

0.280963,1.601204,9.480146,17.232941,-0.007005,0.003477,-0.029312,1.072000,12.759062

0.230668,1.364097,9.551997,17.224117,-0.003541,-0.007448,-0.026914,1.060000,12.759062

0.491725,1.277877,9.599897,17.221176,0.000455,-0.016508,-0.005597,1.052000,12.759062

0.312098,1.570069,9.568762,17.232941,0.008716,-0.010646,0.024513,1.040000,12.759062

0.601896,1.790411,9.535232,17.235882,0.004985,-0.021038,0.047163,1.036000,12.759062

0.731227,1.780831,9.520862,17.235882,0.002054,-0.017574,0.049294,1.028000,12.759062

0.649796,1.584439,9.516071,17.230000,0.000455,-0.001320,0.001597,0.988000,12.759062

0.580340,1.720955,9.614267,17.259411,-0.000877,-0.004517,0.053291,0.976000,12.759062

0.704881,1.663475,9.449011,17.241764,-0.002476,0.001345,0.023181,0.976000,12.759062

0.829423,1.586834,9.532837,17.224117,-0.004341,-0.009846,-0.025582,0.972000,12.759062

1.016234,1.507799,9.403505,17.227058,-0.006739,0.015468,-0.042102,0.968000,12.759062

0.000746,1.462293,9.631032,17.241764,-0.005940,0.010138,-0.050096,0.964000,12.759062

0.273778,1.553304,9.559182,17.230000,-0.002476,-0.013577,-0.026115,0.960000,12.759062

0.805472,1.553304,9.640613,17.230000,-0.000077,-0.010912,0.023181,0.960000,12.759062

0.532440,1.450318,9.516071,17.227058,-0.003275,-0.000254,0.028244,0.956000,12.759062

0.177977,1.594019,9.640613,17.238823,0.003387,-0.014376,-0.000534,0.952000,12.759062

0.968334,1.771251,9.274175,17.241764,0.000189,-0.006915,0.014388,0.948000,12.759062

0.604291,1.644315,9.633428,17.230000,-0.003275,-0.009313,0.018385,0.948000,12.759062

0.522860,1.423973,9.405901,17.221176,-0.002476,0.002677,-0.029046,0.948000,12.759062

0.101337,1.414393,9.604687,17.232941,-0.002209,-0.018640,-0.039171,0.944000,12.759062

0.395924,1.560489,9.674143,17.241764,0.002321,-0.025568,-0.011459,0.940000,12.759062

0.544415,1.392838,9.417875,17.232941,0.002854,-0.022104,0.034372,0.940000,12.759062

0.712067,1.495824,9.640613,17.227058,0.006851,-0.031963,0.062351,0.940000,12.759062

0.918038,1.639525,9.573552,17.247646,0.006584,-0.008514,0.063950,0.936000,12.759062

0.072596,1.594019,9.343630,17.232941,0.004719,-0.016774,0.026112,0.936000,12.759062

0.530045,1.713770,9.535232,17.227058,0.003120,-0.036759,-0.012259,0.932000,12.759062

0.850978,1.641920,9.422666,17.232941,-0.004607,-0.024502,-0.024782,0.928000,12.759062

0.407899,1.519774,9.468171,17.221176,0.000455,-0.029298,-0.017321,0.932000,12.759062

0.779127,1.541329,9.698093,17.241764,0.005785,-0.040490,-0.002133,0.928000,12.759062

