ax,ay,az,gx,gy,gz,temp,volt,vel

0.058226,1.970037,9.350815,15.456469,0.019641,-0.008514,0.146287,0.880000,0.000000

0.446219,1.582044,9.472961,15.438822,0.111304,0.072224,0.329346,1.116000,0.000000

0.889298,1.531749,9.137658,15.459410,0.172324,0.099137,0.433267,1.372000,0.000000

0.532440,1.613179,9.290939,15.459410,0.160866,0.162821,0.577156,1.336000,0.000000

0.161212,1.241951,9.585527,15.474117,0.099047,0.189468,0.561968,1.380000,0.000000

-2.123636,1.452713,9.537626,15.477058,-0.010736,0.208919,0.482562,1.344000,0.000000

-0.842301,-0.020224,9.738809,15.488823,0.015377,0.071691,0.306963,1.320000,0.000000

-2.514025,-0.597424,9.916039,15.506470,-0.052571,0.073024,0.206241,1.288000,0.000000

-1.469796,0.451595,8.833491,15.503529,-0.041646,-0.052480,0.071411,1.256000,0.000000

-0.918942,0.738997,8.874207,15.521175,-0.021394,-0.080459,0.195582,1.224000,0.000000

-1.465006,0.640802,8.960427,15.521175,-0.025391,-0.223283,0.150017,1.200000,0.000000

-1.958380,0.782108,9.223879,15.521175,0.005785,-0.223549,-0.128703,1.172000,0.000000

-0.849486,0.188143,7.856322,15.535881,-0.018197,-0.309084,-0.370917,1.168000,0.000000

-0.533344,0.645592,8.079060,15.532940,-0.028056,-0.334131,-0.479634,1.268000,0.000000

-0.073500,1.033585,9.159214,15.544704,-0.106396,-0.378630,-0.473505,1.236000,0.000000

0.561180,0.750972,8.934082,15.535881,-0.083747,-0.328269,-0.462847,1.236000,0.000000

-1.249454,1.414393,9.839399,15.550587,-0.085878,-0.306952,-0.372782,1.416000,0.000000

0.216298,1.380862,9.666958,15.553528,-0.043777,-0.340526,-0.202779,1.384000,0.000000

0.494120,-0.020224,9.336445,15.544704,-0.141835,-0.315745,-0.035974,1.348000,0.000000

1.519188,-0.199850,10.213022,15.553528,0.002854,-0.289365,0.056755,1.320000,0.000000

1.133590,0.480335,10.464499,15.571175,0.008716,-0.269114,0.097524,1.296000,0.000000

1.236576,-0.147160,9.008327,15.568233,-0.027523,-0.232875,0.099389,1.272000,0.000000

1.933527,0.937784,9.779524,15.553528,0.072933,-0.234208,0.140957,1.248000,0.000000

2.843634,2.154454,9.096943,15.568233,0.047353,-0.128422,0.221962,1.228000,0.000000

2.026932,2.310130,9.369975,15.577057,0.004186,-0.061540,0.249674,1.272000,0.000000

1.528768,2.765184,9.305309,15.571175,0.040691,-0.030364,0.306164,1.296000,0.000000

0.642611,2.199959,8.625124,15.571175,0.014045,-0.012244,0.325349,2.244000,0.000000

0.391134,2.619088,9.017907,15.565292,0.044422,0.016533,0.290176,4.220000,0.000000

-0.099845,2.453831,10.392649,15.579998,0.051616,-0.031963,0.239016,4.436000,0.000000

0.645006,2.365216,8.680209,15.577057,0.012180,0.035452,0.148951,4.756000,0.000000

0.175582,0.858748,8.941267,15.594706,-0.073355,-0.055944,0.107117,4.672000,0.000000

0.910853,-1.454840,10.227392,15.585880,-0.028322,-0.015708,0.138559,4.456000,0.000000

2.196979,-0.686039,10.665681,15.591763,0.114501,-0.031430,0.142290,4.392000,0.000000

0.937198,-2.048805,9.496911,15.577057,-0.126647,-0.096447,0.148418,4.220000,0.000000

1.763480,-1.004577,10.052556,15.588821,0.078263,-0.053280,0.116709,3.976000,0.000000

1.710790,-0.626164,10.179492,15.582939,-0.019796,-0.009846,0.329613,3.820000,0.000000

1.655704,1.110225,9.817844,15.594706,0.119298,0.029324,0.361322,3.640000,0.000000

0.015116,2.614298,8.826305,15.603529,0.030832,0.048775,0.264063,3.484000,0.000000

0.295333,1.902977,9.551997,15.603529,0.018841,-0.003718,0.198780,3.340000,0.000000

-0.341742,1.950877,10.234577,15.612352,0.097714,-0.022903,0.179861,3.668000,0.000000

0.053436,3.332803,8.689790,15.609411,0.212027,-0.025035,0.243812,4.712000,0.000000

0.673746,0.559371,7.511440,15.627058,0.088655,-0.051414,0.440461,4.548000,0.000000

1.078505,-0.010644,10.555510,15.621176,0.013246,-0.073531,0.664290,4.364000,0.000000

4.050724,-0.010644,9.853769,15.621176,0.088122,-0.007715,0.886519,4.192000,0.000000

2.486776,1.007240,10.114826,15.632940,0.049751,-0.034627,0.896645,4.024000,0.000000

1.677259,0.681517,9.760364,15.650587,0.069469,0.073024,0.621123,3.860000,0.000000

1.282081,2.053863,8.622729,15.612352,0.009782,-0.023436,0.162807,3.696000,0.000000

2.024537,2.619088,9.008327,15.638823,0.029233,0.097272,-0.115380,4.180000,0.000000

0.086966,0.636012,11.403347,15.647646,0.151273,0.177743,-0.054093,5.000000,0.000000

-1.213529,2.360425,9.096943,15.627058,0.100379,0.119921,0.075141,5.304000,0.000000

0.024696,2.120924,9.252620,15.656469,0.104109,0.123918,0.015986,5.692000,0.000000

2.436481,2.492151,9.168794,15.659410,0.047619,0.010405,0.121506,6.392000,0.000000

1.013839,3.347173,9.022697,15.665293,0.229347,0.183872,0.300302,6.456000,0.000000

1.696420,2.966366,9.295730,15.659410,0.240805,0.131112,0.482029,6.488000,0.000000

-0.310607,2.686148,8.890971,15.629999,-0.014466,0.096472,0.444991,6.276000,0.000000

0.633031,0.997660,13.501384,15.647646,0.008982,0.004276,0.441261,6.128000,0.000000

1.909576,1.148546,7.897038,15.653528,-0.005673,0.126849,0.309628,6.220000,0.000000

-0.341742,2.202354,10.234577,15.665293,-0.042179,0.074089,0.139891,6.416000,0.000000

1.559904,1.617970,9.669353,15.638823,0.077730,0.095939,0.107916,6.732000,0.000000

0.910853,1.835916,8.196416,15.659410,0.062008,0.135909,0.120973,7.088000,0.000000

1.131195,3.804622,10.407019,15.659410,0.176587,0.172148,0.115643,7.144000,0.000000

0.652191,-0.310021,8.756850,15.677057,0.097714,0.204922,0.079404,7.192000,0.000000

-1.017138,0.988079,8.910131,15.671175,0.042557,0.168417,0.172133,7.216000,0.000000

0.154027,1.335357,9.156818,15.682940,0.189111,0.163088,0.204375,7.172000,0.000000

1.904786,2.219119,9.631032,15.679998,0.102777,0.116723,0.293640,7.156000,0.000000

1.210231,0.367769,9.429851,15.662352,0.165929,0.174013,0.419677,7.140000,0.000000

1.044974,2.604717,10.088481,15.679998,0.138217,0.289125,0.515870,7.184000,0.000000

0.934803,4.161480,8.718530,15.688822,0.087322,0.267541,0.399426,7.188000,0.000000

-0.598009,4.005804,12.181728,15.679998,0.197371,0.352276,0.120973,7.216000,0.000000

1.696420,1.347332,6.764194,15.685881,0.020973,0.144435,0.062084,7.196000,2271.897810

-2.217042,3.368729,10.131592,15.691763,0.029500,0.316570,-0.035441,7.208000,2271.897810

2.105968,0.839588,7.942543,15.691763,-0.084013,0.091942,0.067680,7.204000,2271.897810

-0.499813,3.871683,9.178373,15.697645,-0.046975,0.357339,-0.371716,7.256000,2271.897810

-0.368087,1.637130,6.129513,15.697645,0.000722,0.244092,-0.587818,7.276000,2271.897810

1.777850,2.480176,8.684999,15.694704,-0.380319,0.060500,-0.634981,7.252000,2271.897810

-3.419342,1.960457,13.664246,15.697645,0.166462,0.449801,-0.703462,7.240000,2271.897810

-0.962052,4.432117,12.105087,15.697645,0.172324,0.263278,-0.943811,7.252000,2271.897810

1.332377,1.783226,11.034513,15.685881,0.055080,0.213982,-1.217202,7.268000,2271.897810

-0.918942,0.932994,8.308981,15.709410,-0.073355,0.107930,-1.354963,7.244000,2271.897810

2.481986,-0.935121,7.394083,15.700586,0.026036,0.036252,-1.211073,7.260000,2271.897810

0.060621,1.673055,9.674143,15.706469,-0.076819,0.159890,-0.919030,7.264000,2271.897810

-2.370324,0.216883,10.612990,15.715292,-0.157290,0.079685,-0.746363,7.268000,2271.897810

-0.566874,-0.515993,8.890971,15.694704,-0.101600,0.041847,-0.730908,7.260000,2271.897810

-0.348927,2.346056,8.996352,15.703527,0.089188,-0.006116,-0.657364,7.272000,2271.897810

-0.887806,1.428763,4.630231,15.715292,-0.037116,-0.016508,-0.494556,7.256000,2271.897810

-1.031508,3.993829,9.925620,15.688822,0.204299,0.022929,-0.524133,7.292000,2271.897810

-0.178881,1.883817,9.753179,15.694704,0.048419,0.081550,-0.365588,7.300000,2271.897810

-2.499655,4.434513,8.620334,15.712351,0.169393,0.039183,-0.289113,7.324000,2271.897810

-2.640961,-2.077546,10.514794,15.700586,-0.012335,-0.054612,-0.321089,7.336000,2271.897810

-0.576454,2.889725,11.930251,15.721176,0.097981,-0.013310,-0.313628,7.336000,2271.897810

-1.824259,1.069510,8.392807,15.715292,0.233877,-0.052747,-0.261934,7.364000,2271.897810

-0.662675,4.657249,8.881392,15.700586,0.117433,0.062898,-0.285649,7.352000,2271.897810

0.498910,3.675291,11.405742,15.703527,0.440918,0.042114,-0.308831,7.352000,2271.897810

1.636544,1.756881,13.178057,15.715292,0.257592,0.058102,-0.320289,7.372000,2271.897810

-5.917347,3.189102,4.723637,15.721176,0.109705,0.165752,-0.221965,7.376000,2271.897810

4.886586,3.835757,10.229787,15.718235,0.323674,-0.255258,-0.492690,7.360000,2271.897810

-1.711693,-3.861835,9.590317,15.724117,-0.145033,-0.061007,0.125769,7.344000,2271.897810

-4.880304,-0.717175,9.283754,15.724117,-0.223373,-0.442848,0.617126,7.348000,2271.897810

-0.894992,-2.182926,7.051596,15.709410,-0.197260,-0.532646,0.540118,7.348000,2271.897810

0.997074,2.449041,11.942226,15.712351,0.131555,0.079685,0.824966,7.348000,2271.897810

-0.902177,2.863380,9.542417,15.709410,0.036161,-0.132153,0.955000,7.372000,10.923402

-3.105594,6.506205,10.763877,15.730000,0.265852,-0.080725,0.535855,7.376000,10.923402

-0.023204,3.241793,10.512400,15.709410,0.288768,0.188402,0.610997,7.380000,10.923402

-0.894992,8.522811,5.497228,15.738823,0.568021,0.141238,0.214235,7.400000,10.923402

2.335890,5.040452,7.413244,15.724117,0.106241,0.090610,0.015720,7.412000,10.923402

-1.584757,3.275323,15.551520,15.718235,-0.234031,0.202258,-0.129236,7.404000,10.923402

-0.554899,7.370807,7.729386,15.721176,0.145678,0.385584,-0.390635,7.404000,10.923402

2.618502,-6.029328,11.283596,15.735882,0.316746,0.233167,-0.195318,7.396000,10.923402

-0.660280,-2.719411,12.038027,15.735882,-0.405633,-0.065004,-0.564635,7.400000,10.923402

-2.885253,5.993670,7.686276,15.732941,-0.126647,0.237431,-0.519070,7.404000,10.923402

-2.669701,9.416153,4.991879,15.738823,0.097714,0.256350,-0.498819,7.392000,10.923402

-2.384694,1.414393,11.391372,15.727058,0.041491,-0.020505,-0.806317,7.412000,10.923402

-2.138007,-2.329023,10.799802,15.735882,-0.431214,-0.263785,-0.686142,7.412000,10.923402

-3.855236,8.656932,12.509846,15.735882,-0.034185,0.180408,-0.359992,7.408000,10.923402

-0.835116,2.544842,8.536509,15.735882,-0.303312,-0.147607,-0.403958,7.400000,10.923402

-0.418383,4.398587,12.157778,15.741764,0.186446,0.046644,-0.388770,7.396000,10.923402

0.946778,-0.393847,9.652588,15.744705,0.379365,-0.009047,-0.443928,7.404000,10.923402

2.208954,-4.046252,10.478869,15.730000,-0.072289,-0.206762,-0.222231,7.404000,10.923402

-2.214647,-0.659694,11.753019,15.724117,-0.496497,-0.289099,-0.211573,7.412000,10.923402

-2.624196,6.949283,6.692343,15.721176,0.166728,0.061299,-0.012792,7.404000,10.923402

1.509608,3.213053,13.151711,15.718235,0.303157,0.116457,0.089797,7.420000,10.923402

-3.282826,-5.432968,8.194020,15.750587,-0.824512,-0.478554,-0.127903,7.404000,10.923402

-2.068551,4.642879,9.551997,15.741764,0.242670,-0.118297,-0.079940,7.412000,10.923402

-0.947682,2.365216,8.026369,15.735882,0.545904,0.290990,-0.161211,7.436000,14.903367

-0.380062,-1.936239,13.498989,15.730000,-0.472782,-0.491078,-0.304568,7.424000,14.903367

0.453404,1.411998,9.408296,15.750587,-0.038714,-0.047418,-0.124972,7.420000,14.903367

-2.212252,3.069351,8.629914,15.741764,-0.060298,-0.066070,-0.280053,7.424000,14.903367

-2.506840,5.782908,10.387858,15.738823,0.185114,0.037051,-0.212372,7.440000,14.903367

0.276173,1.886212,10.912368,15.744705,0.270648,-0.024768,-0.185992,7.444000,14.903367

-1.175209,-2.276332,8.507768,15.724117,0.192841,0.031988,-0.129502,7.440000,14.903367

-1.800309,1.390443,6.208549,15.750587,0.101978,-0.129488,-0.073545,7.444000,14.903367

-0.116610,-0.973442,10.181887,15.741764,-0.140770,-0.142278,0.033573,7.432000,14.903367

-0.370482,-0.551918,12.090717,15.730000,0.062008,-0.051414,-0.053294,7.424000,14.903367

-0.756080,-2.961308,6.249264,15.741764,-0.188200,-0.338395,0.011190,7.420000,14.903367

0.280963,3.871683,9.549602,15.738823,-0.362466,-0.268848,0.356792,7.408000,14.903367

-4.559371,-0.080099,12.378119,15.738823,-0.152494,-0.138281,0.158810,7.420000,14.903367

1.018629,1.148546,9.298124,15.730000,0.150740,-0.121761,0.419144,7.428000,14.903367

-5.081486,0.458780,10.854887,15.732941,-0.226038,-0.011445,0.497218,7.420000,14.903367

-1.108148,2.643038,6.416916,15.732941,0.052682,-0.080459,0.328813,7.420000,14.903367

0.894088,-1.323114,10.562695,15.730000,0.175255,-0.107638,0.138026,7.428000,14.903367

0.338444,0.652777,8.325747,15.735882,-0.036849,-0.016508,0.107383,7.420000,14.903367

-0.665070,0.298314,7.944938,15.715292,-0.171679,-0.050615,0.002397,7.420000,14.903367

0.187557,-1.188993,12.509846,15.750587,-0.205786,-0.169724,-0.064752,7.420000,14.903367

1.277291,5.038058,6.002577,15.744705,-0.152494,-0.090851,-0.019187,7.420000,14.903367

-3.045719,0.224068,10.275292,15.718235,-0.133575,0.112726,-0.140161,7.416000,14.903367

0.108522,1.256322,9.281360,15.744705,-0.017397,-0.160131,-0.330415,7.432000,14.903367

-1.599127,1.589229,10.265713,15.721176,0.218422,0.039449,-0.280853,7.432000,15.431813

0.228273,7.823465,7.271938,15.735882,0.314881,0.040515,-0.163076,7.440000,15.431813

-2.686466,-1.418915,10.088481,15.721176,-0.099201,-0.003718,-0.101524,7.432000,15.431813

1.734740,2.147269,11.065649,15.724117,0.009249,-0.156401,0.159343,7.444000,15.431813

-1.084198,5.311090,9.159214,15.738823,0.179252,0.039716,0.637643,7.444000,15.431813

-5.510194,3.591465,13.019985,15.730000,-0.012601,0.049841,0.761016,7.440000,15.431813

0.642611,1.126991,9.561577,15.744705,0.277576,-0.080725,0.958198,7.456000,15.431813

-1.105753,0.640802,5.743915,15.747646,0.230146,-0.087387,0.750890,7.436000,15.431813

-2.248178,-0.022619,10.160332,15.735882,0.059077,-0.031163,0.609665,7.444000,15.431813

1.073714,1.016820,9.796288,15.762352,0.035362,-0.073531,0.314424,7.460000,15.431813

-2.964288,2.489757,11.719489,15.730000,-0.147165,0.182540,0.048495,7.456000,15.431813

0.216298,-2.091916,12.969689,15.727058,-0.080016,-0.223283,-0.119377,7.464000,15.431813

1.023419,-0.276491,9.470566,15.738823,0.181384,0.031722,-0.286715,7.460000,15.431813

2.309545,4.412958,3.847060,15.741764,0.078795,-0.152670,0.052492,7.460000,15.431813

-2.379904,1.194051,13.501384,15.750587,-0.271869,0.173480,0.248342,7.456000,15.431813

1.226996,-0.985417,12.263159,15.738823,0.121696,-0.196370,0.347999,7.468000,15.431813

-1.232689,0.583321,11.444062,15.727058,0.201102,0.010405,0.651499,7.456000,15.431813

0.599501,2.901700,6.548642,15.735882,0.144345,0.002411,1.016287,7.456000,15.431813

-0.837511,-1.814093,5.355922,15.738823,0.176321,0.012270,0.957132,7.448000,15.431813

-0.732130,0.686307,7.027646,15.741764,0.091053,-0.017840,0.893714,7.464000,15.431813

1.320402,1.165311,10.917158,15.727058,0.313815,0.059700,0.736234,7.472000,15.431813

-1.141679,5.653578,0.987406,15.747646,0.352186,0.264876,0.454317,7.480000,16.678265

0.280963,-0.252541,12.756533,15.735882,-0.060031,0.164154,0.474568,7.472000,16.678265

2.038908,0.695887,10.548325,15.750587,-0.359002,0.112726,0.344002,7.476000,16.678265

-3.000214,1.292247,14.708474,15.727058,-0.364865,0.187869,0.444991,7.476000,16.678265

1.523978,0.142637,12.749348,15.738823,0.145944,0.149232,0.189720,7.492000,16.678265

-0.914152,3.342384,0.894001,15.744705,-0.173278,0.356007,0.180127,7.484000,16.678265

0.156422,2.219119,10.907578,15.747646,0.356449,0.142037,-0.144957,7.480000,16.678265

5.157223,-1.150673,4.385939,15.741764,0.079861,0.219844,-0.385573,7.480000,16.678265

0.745597,-0.329181,8.790380,15.765293,-0.363532,0.135376,-0.225429,7.492000,16.678265

-1.472191,-0.343551,11.360236,15.756470,-0.115722,0.222242,-0.574494,7.492000,16.678265

-1.498536,1.663475,8.268266,15.747646,-0.221508,0.140439,-0.523067,7.488000,16.678265

-1.254244,5.445211,11.767390,15.727058,-0.220975,0.215314,-0.518271,7.492000,16.678265

-0.250731,0.607271,7.128236,15.753529,0.034563,0.286726,-0.539588,7.492000,16.678265

-1.512907,4.369847,9.331655,15.738823,0.083325,0.136442,-0.480433,7.504000,16.678265

-1.841024,-10.086491,6.986930,15.732941,-0.774417,-0.394352,-0.480167,7.488000,16.678265

-1.055458,-5.440153,13.522939,15.735882,-0.775483,-0.567552,-0.422344,7.484000,16.678265

-0.080685,4.238121,11.496753,15.732941,0.424664,0.207854,-0.348001,7.492000,16.678265

2.084413,-3.207995,8.035949,15.732941,0.123561,-0.120428,-0.391435,7.504000,16.678265

-3.369047,1.016820,2.627995,15.741764,0.036694,-0.104441,-0.319756,7.496000,18.733257

2.829264,-3.004418,9.379556,15.747646,-0.266273,-0.345323,-0.170804,7.488000,18.733257

0.824632,-2.582895,10.972243,15.732941,-0.151695,-0.124159,-0.096727,7.500000,18.733257

0.589921,3.828573,7.849137,15.744705,0.107040,-0.139081,0.231555,7.504000,18.733257

-1.944010,3.294483,2.381308,15.741764,0.320477,0.187069,0.217432,7.504000,18.733257

3.487894,-3.902550,10.663286,15.730000,0.443583,-0.436453,0.095925,7.512000,18.733257

-0.121400,7.284586,9.470566,15.756470,0.974109,0.725590,0.369849,7.528000,18.733257

1.310822,3.234608,5.090075,15.747646,0.201901,-0.143344,0.375977,7.528000,18.733257

-4.686307,3.088511,7.600055,15.744705,-0.301446,0.083682,0.361855,7.520000,18.733257

1.253341,2.252650,4.891288,15.732941,0.354851,0.013069,0.302434,7.520000,18.733257

-2.023046,1.649105,14.763559,15.741764,0.253062,0.340285,0.146553,7.516000,18.733257

0.180372,-2.906222,12.026052,15.747646,-0.543661,-0.213957,0.185190,7.516000,18.733257

-8.724311,2.080208,15.805393,15.744705,-0.172745,0.434080,-0.126571,7.520000,18.733257

2.311940,5.869129,6.651628,15.741764,0.038293,-0.018640,-0.053827,7.512000,18.733257

-1.462611,6.901383,2.869892,15.738823,0.581610,0.686154,0.027178,7.508000,18.733257

8.577311,2.274205,13.925303,15.765293,0.273580,-0.244600,-0.111116,7.520000,18.733257

-2.890043,1.548514,-0.938189,15.741764,-0.094405,0.395177,0.051159,7.520000,18.733257

-4.018097,-3.646283,12.612832,15.738823,-0.003009,-0.155868,0.069812,7.524000,19.805847

0.731227,2.520892,8.126960,15.738823,-0.139437,-0.029831,-0.016788,7.520000,19.805847

-2.925968,-6.632873,12.002102,15.721176,-0.213247,0.099137,0.028510,7.516000,19.805847

-9.050034,5.763749,17.168159,15.730000,-0.123716,0.192932,0.221429,7.532000,19.805847

6.151156,-5.567089,0.323986,15.747646,-0.189532,-0.388490,0.145754,7.532000,19.805847

-6.422697,5.404496,8.196416,15.762352,0.456106,0.769290,0.511607,7.528000,19.805847

0.094152,-6.498752,13.582814,15.753529,-0.375790,-0.180915,0.119107,7.532000,19.805847

-4.832404,15.027684,12.083532,15.744705,0.791316,0.660307,0.313891,7.552000,19.805847

0.295333,-8.730909,7.147397,15.735882,-0.874074,-0.351185,-0.193453,7.540000,19.805847

2.628082,8.721598,16.310741,15.753529,0.541641,0.085014,-0.675484,7.540000,19.805847

2.664008,-4.601896,6.323510,15.744705,-0.041113,0.084481,-0.547848,7.544000,19.805847

-0.691415,5.160203,4.905658,15.750587,0.619981,0.090344,-0.478035,7.544000,19.805847

0.807867,-4.434245,8.953242,15.753529,-0.522877,-0.240603,-0.547582,7.532000,19.805847

5.846989,0.418065,4.579936,15.744705,0.214158,-0.428459,-0.593946,7.540000,19.805847

2.671193,1.347332,9.743598,15.738823,0.409209,-0.025834,-0.196118,7.524000,19.805847

-1.896110,6.985209,15.096467,15.735882,0.314082,0.334423,0.062084,7.540000,19.805847

-3.737880,-0.405822,7.293493,15.756470,-0.619336,-0.020505,0.275787,7.528000,19.805847

-0.523764,1.301827,4.893683,15.753529,-0.172479,-0.388490,0.196382,7.520000,20.404929

-0.001649,6.137372,9.963940,15.756470,0.574949,0.191866,0.453518,7.524000,20.404929

-3.606153,-0.104050,8.493398,15.747646,-0.303845,-0.046085,0.605934,7.516000,20.404929

-2.322423,2.959180,10.007051,15.759411,0.251730,0.259281,0.490290,7.528000,20.404929

0.575550,8.268939,1.284389,15.768234,0.562425,-0.017840,0.267793,7.532000,20.404929

1.368302,0.624036,2.338197,15.753529,-0.005940,-0.053546,0.290443,7.528000,20.404929

1.516793,4.470438,13.113391,15.735882,-0.022727,-0.122027,-0.003199,7.532000,20.404929

1.449733,1.100645,13.302597,15.747646,-0.647048,-0.058875,0.095392,7.524000,20.404929

3.521425,-1.883549,12.112272,15.750587,0.303956,0.060766,0.157212,7.540000,20.404929

1.485658,1.891002,9.472961,15.768234,0.049751,0.197728,0.231288,7.536000,20.404929

-3.028954,-2.463144,11.650034,15.759411,-0.796800,-0.182780,-0.189723,7.532000,20.404929

2.295175,-2.216457,14.593513,15.753529,-0.179940,-0.362110,-0.065818,7.536000,20.404929

-1.146469,1.349727,11.779365,15.753529,-0.238028,0.267541,-0.047432,7.548000,20.404929

-4.954550,-2.992443,11.214140,15.732941,-0.354206,0.135376,0.177463,7.540000,20.404929

-6.734049,-1.435680,8.103010,15.756470,-0.371526,-0.074330,-0.041303,7.544000,20.404929

0.302518,4.597374,7.315048,15.759411,0.807304,0.416760,0.180660,7.556000,20.404929

-5.306617,8.529996,6.754613,15.750587,0.043622,0.083948,0.004262,7.556000,20.404929

6.040985,-2.851137,4.733217,15.759411,0.489947,-0.122293,-0.075943,7.552000,20.051002

0.872533,4.187826,9.080178,15.768234,0.127292,0.089544,-0.014124,7.556000,20.051002

-0.418383,0.279154,3.162084,15.747646,0.421999,0.282463,0.121772,7.560000,20.051002

-5.124596,7.600728,16.147881,15.756470,-0.172212,-0.107905,-0.101524,7.556000,20.051002

1.080899,-4.254618,12.066768,15.744705,-0.208984,-0.125758,0.045031,7.560000,20.051002

5.791903,-0.017829,8.603569,15.756470,0.191243,0.237697,0.219564,7.552000,20.051002

-1.972750,3.565120,6.567802,15.747646,0.158468,0.418892,0.296038,7.548000,20.051002

-1.723668,-0.549523,6.543852,15.753529,-0.342482,0.077820,0.189986,7.548000,20.051002

1.456918,-0.762680,7.030041,15.727058,0.023105,0.136175,0.255803,7.548000,20.051002

-2.952313,0.789293,10.337564,15.750587,0.032165,0.063697,0.019717,7.552000,20.051002

-0.181276,1.332962,12.390095,15.765293,-0.074154,0.014668,-0.089799,7.556000,20.051002

-2.042206,-0.580658,9.084968,15.759411,-0.130378,0.222775,-0.108185,7.564000,20.051002

-1.778754,4.130345,7.382109,15.753529,0.147809,0.022662,-0.292577,7.556000,20.051002

0.520465,2.329290,12.799644,15.756470,-0.228702,-0.002652,-0.441796,7.560000,20.051002

2.953805,2.463411,11.082415,15.750587,-0.144234,-0.049549,-0.325619,7.564000,20.051002

-1.249454,-4.405505,14.076189,15.735882,-0.211649,0.177743,-0.371716,7.560000,20.051002

-2.133217,3.840548,7.669511,15.753529,0.182183,0.217979,-0.258203,7.564000,20.907907

-1.944010,-0.915961,11.053674,15.750587,0.070802,-0.035693,-0.583821,7.568000,20.907907

1.727555,-5.468893,8.004814,15.756470,-0.053103,-0.302955,-0.276056,7.568000,20.907907

-1.903295,3.301668,9.022697,15.747646,0.258658,0.160157,-0.169738,7.572000,20.907907

-1.766779,3.289693,7.444379,15.759411,0.069469,-0.116165,-0.219833,7.560000,20.907907

1.049764,2.152059,9.619058,15.744705,0.493678,-0.044753,-0.119909,7.580000,20.907907

0.855768,-1.232104,7.810817,15.750587,0.356716,-0.021038,-0.173202,7.580000,20.907907

0.434244,0.171378,0.994592,15.774117,0.244269,-0.226480,-0.196118,7.568000,20.907907

0.623451,1.088670,10.857283,15.771175,0.517926,-0.138548,-0.261667,7.564000,20.907907

-1.809889,3.864498,4.905658,15.771175,0.455307,0.426886,-0.205177,7.560000,20.907907

-0.013624,-3.428337,14.251025,15.762352,0.027635,-0.072465,-0.248078,7.572000,20.907907

0.645006,-4.338444,10.866862,15.759411,0.084658,-0.228612,-0.330681,7.580000,20.907907

0.039066,-3.243920,6.642047,15.765293,-0.501826,-0.641895,-0.246213,7.560000,20.907907

-3.091224,-3.684604,10.783037,15.747646,0.080661,-0.181715,-0.256605,7.564000,20.907907

3.818407,-3.581618,8.445498,15.753529,-0.183404,-0.640030,-0.145490,7.560000,20.907907

-3.919901,-3.251105,9.631032,15.759411,-0.517548,-0.336529,0.034106,7.552000,20.907907

-1.311725,-1.785353,15.807788,15.762352,-0.000610,-0.542505,0.031974,7.564000,20.907907

-3.438502,2.652618,9.192744,15.762352,-0.568175,-0.232875,0.282982,7.552000,20.724143

-4.556976,-1.129118,7.456354,15.774117,-0.408831,-0.244067,0.545447,7.552000,20.724143

0.211507,-1.866784,12.162568,15.753529,-0.219642,-0.567552,0.711453,7.552000,20.724143

-2.185907,4.609349,11.362632,15.765293,0.124893,0.158824,0.961928,7.564000,20.724143

-2.018256,0.075577,10.031001,15.747646,-0.058699,-0.385292,0.814841,7.564000,20.724143

2.699933,-3.607963,9.197534,15.750587,0.072400,-0.343457,1.062385,7.568000,20.724143

-0.700995,-2.338603,3.018383,15.750587,-0.088809,-0.359179,0.949937,7.568000,20.724143

0.824632,-2.463144,12.634387,15.762352,-0.210050,-0.507065,0.794856,7.560000,20.724143

1.488053,4.070470,12.224838,15.762352,0.098514,0.229437,0.962994,7.576000,20.724143

-2.236202,-1.313534,5.219406,15.768234,-0.587361,0.257682,0.675748,7.576000,20.724143

-0.075895,-2.645165,16.557428,15.741764,0.123828,-0.055944,0.438329,7.580000,20.724143

0.599501,7.083404,4.036266,15.756470,0.590936,0.435146,0.339472,7.592000,20.724143

5.068607,-5.892812,14.593513,15.765293,-0.037116,0.040515,-0.047165,7.584000,20.724143

0.898878,10.230460,2.716611,15.756470,1.315981,0.826313,-0.228360,7.600000,20.724143

5.612277,1.663475,7.063571,15.759411,-0.466653,-0.478820,-0.672819,7.588000,20.724143

1.643729,-5.895206,12.775693,15.768234,0.387093,0.592092,-0.495355,7.592000,20.724143

-0.866251,0.839588,11.300361,15.762352,-0.156224,-0.259255,-0.565968,7.596000,21.025867

-1.630263,-2.487094,7.559340,15.753529,-0.270270,0.164154,-0.523867,7.592000,21.025867

0.436639,1.756881,5.037385,15.741764,0.411607,-0.134018,-0.535324,7.592000,21.025867

-0.183671,11.475870,4.510480,15.768234,0.399616,0.159091,-0.143358,7.592000,21.025867

3.701051,4.779396,15.379079,15.750587,0.125959,0.129514,-0.111916,7.588000,21.025867

-0.281867,2.935230,10.390254,15.753529,-0.163685,0.011471,0.132431,7.580000,21.025867

-3.419342,5.215289,11.729070,15.768234,-0.191131,-0.005583,0.033839,7.576000,21.025867

0.982704,-1.411730,8.026369,15.735882,0.030832,-0.129754,0.194250,7.568000,21.025867

2.055673,5.279954,12.114668,15.753529,0.282373,-0.261653,0.049028,7.572000,21.025867

-1.093778,1.148546,7.468329,15.756470,-0.161021,0.130579,0.296305,7.576000,21.025867

-0.787216,-1.909894,6.476791,15.756470,-0.160754,0.022662,0.349331,7.588000,21.025867

-2.006281,-2.278727,9.374765,15.750587,-0.252684,-0.141479,0.355993,7.572000,21.025867

-2.370324,1.960457,11.599738,15.747646,-0.101866,0.091143,0.221962,7.576000,21.025867

-3.891161,1.435948,14.006733,15.747646,-0.191397,-0.007715,0.072743,7.600000,21.025867

0.424664,-0.583053,-0.047242,15.747646,-0.150096,-0.277375,-0.112448,7.588000,21.025867

-0.815956,-5.514399,22.530607,15.762352,-0.329691,0.115658,-0.123640,7.600000,21.025867

3.772902,1.122200,9.432246,15.771175,0.229613,0.133510,-0.048231,7.604000,21.326215

-2.815797,-3.126564,10.277688,15.774117,-0.504491,-0.346122,-0.105254,7.596000,21.326215

0.225878,-3.464262,6.131908,15.765293,0.170192,-0.018107,-0.001867,7.588000,21.326215

-1.187184,0.236043,7.758127,15.777058,-0.021661,0.155893,0.136694,7.596000,21.326215

-1.809889,2.760394,7.204877,15.777058,-0.045376,-0.004251,-0.137230,7.600000,21.326215

-1.934430,8.165953,10.878838,15.762352,-0.245223,-0.031430,-0.085802,7.596000,21.326215

3.128641,-5.382672,10.778247,15.765293,-0.246022,0.019198,0.079138,7.600000,21.326215

-3.414552,7.710899,7.480304,15.768234,0.524054,0.625667,0.241947,7.612000,21.326215

1.899996,-5.068925,9.053833,15.765293,-0.157290,-0.360511,-0.095928,7.608000,21.326215

0.391134,-4.182768,20.044577,15.762352,-0.333688,-0.391687,0.074075,7.608000,21.326215

3.224442,3.749537,9.563972,15.779999,1.023139,0.557452,0.038902,7.620000,21.326215

1.756295,-1.414125,4.093747,15.762352,-0.375257,-0.753010,-0.087135,7.608000,21.326215

1.703605,-3.691789,12.905025,15.762352,-0.452531,0.132711,0.073809,7.596000,21.326215

-5.689821,3.677686,14.315691,15.771175,0.039625,0.660840,0.122038,7.604000,21.326215

-3.103199,-0.377082,19.785915,15.765293,0.594667,0.215314,-0.058890,7.620000,21.326215

-1.354835,0.204908,5.351132,15.762352,0.490214,0.281930,-0.120442,7.624000,21.326215

-1.836234,4.755445,1.844824,15.774117,0.079328,-0.267516,-0.265931,7.600000,22.542424

0.625846,-0.367502,13.427138,15.777058,-0.289456,0.099936,-0.289646,7.604000,22.542424

-3.278036,4.707545,9.439431,15.771175,-0.073355,-0.002652,-0.326951,7.612000,22.542424

0.283358,-8.532123,10.277688,15.785881,-0.345679,-0.452973,-0.285116,7.600000,22.542424

-2.959498,1.074300,5.861271,15.771175,-0.432546,-0.157467,-0.405291,7.604000,22.542424

-2.312843,1.565279,10.495634,15.765293,-0.394975,0.113259,-0.168406,7.592000,22.542424

-1.879345,6.839112,8.831096,15.777058,-0.281195,-0.061007,-0.169205,7.600000,22.542424

-2.497260,-0.611794,9.628637,15.759411,-1.030221,-0.363176,-0.135364,7.584000,22.542424

1.270106,-7.873493,23.395210,15.771175,-0.746172,-0.144410,-0.033309,7.564000,22.542424

-1.661398,-5.100060,15.920354,15.779999,-0.327560,-0.053546,-0.097793,7.592000,22.542424

-3.191815,6.819952,9.358000,15.765293,-0.020861,0.189734,-0.024249,7.596000,22.542424

-2.008676,5.804464,5.808581,15.765293,-0.041379,-0.016508,-0.069815,7.600000,22.542424

-3.273246,-1.823673,9.422666,15.788822,-0.105330,0.001878,-0.023983,7.592000,22.542424

-0.097450,0.341424,4.342829,15.756470,0.329803,-0.354915,0.023447,7.596000,22.542424

-2.449359,-0.942306,15.601816,15.782940,-0.170080,0.096206,0.387169,7.596000,22.542424

-0.327372,-0.642929,12.833174,15.771175,0.233877,-0.161996,0.212902,7.616000,22.542424

1.059344,0.820428,9.125683,15.794704,0.859264,0.102334,0.385570,7.620000,20.813045

-2.035021,8.041412,4.397914,15.774117,0.201368,-0.508131,0.160676,7.616000,20.813045

2.520306,6.460699,2.764511,15.765293,0.712443,-0.224882,0.136694,7.604000,20.813045

5.559586,3.009476,12.852334,15.794704,0.480354,-0.096180,0.119374,7.612000,20.813045

7.580983,-6.491567,10.941108,15.782940,0.188844,-0.159332,0.224360,7.620000,20.813045

-2.322423,-4.479750,14.677339,15.791763,-0.378454,-0.201433,0.173466,7.612000,20.813045

-2.415829,-4.161212,8.208390,15.768234,-0.102932,-0.217421,0.010391,7.608000,20.813045

-0.133375,9.377833,4.908053,15.785881,0.790250,0.141504,0.071677,7.628000,20.813045

-3.438502,-1.160253,9.899275,15.791763,0.084924,0.017599,0.187855,7.624000,20.813045

-2.303263,-8.000429,11.209351,15.791763,-0.619603,-0.097512,0.286712,7.616000,20.813045

-5.227582,1.215606,10.368698,15.782940,0.311417,-0.077794,0.391166,7.620000,20.813045

1.310822,2.449041,2.498664,15.765293,0.071601,0.025327,0.530259,7.624000,20.813045

-1.766779,-4.458195,13.642690,15.768234,-0.453064,-0.440450,0.600605,7.612000,20.813045

-1.203949,-2.000905,12.042817,15.759411,-0.262277,-0.014909,0.594743,7.608000,20.813045

0.307308,0.911439,5.164320,15.779999,0.185913,0.019997,0.435931,7.604000,20.813045

3.272343,2.005963,16.234100,15.788822,0.381497,0.094607,0.482296,7.604000,22.116035

-0.119005,0.523446,6.426496,15.782940,0.224817,0.119654,0.092994,7.612000,22.116035

-3.261271,3.943534,7.837162,15.774117,0.058544,0.300316,-0.231291,7.612000,22.116035

4.489012,-1.315929,15.901194,15.777058,-0.000344,-0.317078,-0.403958,7.608000,22.116035

2.367025,-4.640216,7.736571,15.777058,0.295696,0.122053,-0.019187,7.620000,22.116035

-2.928363,-1.078822,-0.322669,15.771175,0.057745,-0.255791,0.260332,7.620000,22.116035

1.562299,3.404654,10.850098,15.782940,0.447846,0.042647,0.438063,7.616000,22.116035

-0.962052,-1.244079,12.212864,15.777058,-0.356604,-0.127356,0.489224,7.612000,22.116035

-1.728458,7.284586,3.310575,15.759411,0.785720,0.501229,0.657895,7.624000,22.116035

3.531004,3.033426,12.349380,15.782940,-0.333422,-0.283770,0.655496,7.612000,22.116035

6.666085,0.504285,10.605805,15.782940,0.357782,0.136175,0.897444,7.600000,22.116035

0.268988,-7.696261,7.324628,15.791763,-0.035250,0.337354,0.660293,7.612000,22.116035

-8.012990,0.528236,8.402388,15.765293,-0.549257,0.460194,0.374378,7.612000,22.116035

1.023419,0.509075,9.693303,15.782940,-0.073355,0.071158,-0.178265,7.608000,22.116035

-1.242269,-0.801000,9.422666,15.791763,-0.402702,0.607814,-0.101524,7.600000,22.116035

-2.346373,2.420301,12.732583,15.759411,0.046021,0.610745,-0.246213,7.600000,22.116035

-3.716325,2.413116,6.972560,15.779999,0.113969,0.445005,-0.826301,7.604000,22.116035

2.022142,5.576937,9.468171,15.771175,-0.387514,0.011204,-0.893983,7.596000,20.925802

1.952687,-3.155304,13.491804,15.771175,0.194707,0.292855,-0.763683,7.612000,20.925802

1.083295,4.906332,7.729386,15.777058,0.291699,0.385584,-0.447925,7.612000,20.925802

-1.726063,1.359308,6.263635,15.774117,-0.124515,0.405569,-0.067150,7.608000,20.925802

0.199532,-1.646442,9.726833,15.779999,-0.153293,-0.119895,-0.204911,7.600000,20.925802

-0.971632,0.839588,4.611071,15.765293,0.331935,0.115658,-0.066350,7.608000,20.925802

-1.740433,1.261111,14.600698,15.768234,-0.165018,-0.003451,-0.143358,7.608000,20.925802

-0.138165,-3.299006,9.765154,15.774117,0.070269,0.120454,-0.351199,7.616000,20.925802

-2.449359,-5.720370,12.119457,15.779999,-0.302779,-0.062073,-0.384240,7.604000,20.925802

-0.011229,5.823624,2.489084,15.771175,0.100912,0.001079,-0.230225,7.608000,20.925802

-1.560807,0.516261,12.703842,15.774117,-0.372592,0.215847,-0.472173,7.604000,20.925802

-0.027994,1.823941,8.019184,15.782940,0.081194,0.124451,-0.716252,7.604000,20.925802

-0.918942,-3.425942,10.184282,15.779999,-0.167949,-0.122293,-1.108219,7.600000,20.925802

2.386185,-2.752941,11.535073,15.785881,-0.263076,-0.158799,-1.153784,7.596000,20.925802

-1.884135,-0.817765,8.368856,15.771175,-0.468785,0.023994,-0.957667,7.596000,20.925802

1.562299,1.131781,7.770102,15.779999,0.082526,0.055703,-0.508678,7.604000,20.925802

-0.451913,-1.967375,13.587605,15.779999,0.050284,-0.001852,-0.107652,7.604000,20.309457

-3.848051,2.583162,1.183798,15.782940,0.437987,-0.023702,-0.096194,7.612000,20.309457

5.624252,-7.466340,17.081938,15.779999,0.143279,-0.604591,-0.313628,7.596000,20.309457

1.938317,-0.369897,13.163686,15.788822,0.479022,-0.111901,0.094859,7.620000,20.309457

-7.145992,4.233331,-6.307823,15.791763,0.950128,0.430616,0.392498,7.616000,20.309457

1.514398,1.795201,11.216536,15.762352,-0.021927,-0.418866,0.208106,7.600000,20.309457

2.486776,6.118211,11.487172,15.782940,0.289567,0.036252,0.284847,7.604000,20.309457

-4.101923,9.773011,4.206313,15.782940,-0.029388,0.391979,0.106850,7.604000,20.309457

-1.841024,-2.946938,11.484777,15.791763,-0.480776,0.055703,-0.033842,7.608000,20.309457

1.004259,11.777642,9.825029,15.791763,0.479022,-0.058875,-0.370384,7.612000,20.309457

-0.962052,-8.187241,14.033078,15.800587,-0.316901,-0.253926,-0.595012,7.596000,20.309457

-0.217201,14.450484,14.804275,15.779999,0.154471,-0.083923,-0.553177,7.612000,20.309457

-3.893556,-3.830700,20.133194,15.794704,-0.397107,-0.095114,-0.584087,7.596000,20.309457

3.126246,-0.894406,9.839399,15.771175,-0.058966,-0.161463,-0.621925,7.592000,20.309457

2.405345,0.516261,6.151069,15.785881,-0.169548,-0.174787,-0.381576,7.580000,20.309457

-1.991910,-0.032199,7.437194,15.797646,0.366575,-0.067935,-0.192920,7.592000,20.309457

-0.243546,-1.265634,10.699211,15.791763,-0.049906,-0.253127,-0.047165,7.604000,20.309457

-3.218160,0.825218,8.011999,15.788822,0.502471,0.210252,0.241680,7.608000,20.035321

-3.237321,0.573741,13.580420,15.791763,-0.078684,-0.468695,0.364519,7.612000,20.035321

-0.396827,-6.824474,8.426337,15.794704,0.231212,-0.232342,0.250473,7.608000,20.035321

-0.233966,10.807660,6.117538,15.791763,0.214158,-0.584872,0.252072,7.620000,20.035321

-1.685348,3.292088,4.836203,15.791763,0.192575,-0.127090,0.383172,7.616000,20.035321

-2.305658,4.048914,18.451889,15.794704,-0.251618,0.040782,0.318421,7.612000,20.035321

-0.114215,0.408485,10.337564,15.806469,-0.420022,0.039449,0.309895,7.620000,20.035321

-3.266061,1.227581,20.619383,15.794704,0.406544,0.188668,0.434332,7.620000,20.035321

0.362394,4.302787,7.216852,15.788822,0.334067,-0.120961,0.007993,7.628000,20.035321

1.246156,-0.971047,8.871811,15.803528,0.289834,0.502828,-0.130568,7.628000,21.300142

3.202887,1.550909,18.420753,15.788822,-0.312105,-0.244600,-0.353064,7.640000,21.300142

0.218693,-2.877482,4.948769,15.779999,-0.533002,0.182806,-0.189190,7.636000,21.300142

-0.583639,6.209222,11.956596,15.771175,-0.403235,0.097538,-0.154550,7.632000,21.300142

-2.109267,7.215130,10.945898,15.788822,0.406278,0.649915,-0.547315,7.652000,21.300142

1.351537,-5.749110,8.170071,15.794704,-0.540996,0.026659,-0.332014,7.644000,20.988556

-5.206027,-3.919316,11.657219,15.803528,-0.503425,-0.251261,-0.305900,7.640000,20.988556

-0.861461,5.217684,10.462104,15.809410,0.381230,0.166552,-0.480433,7.640000,20.988556

-0.322582,0.719837,11.415322,15.800587,0.113169,0.002944,0.115377,7.644000,20.988556

-2.434989,2.978341,6.012157,15.815292,0.092918,0.226239,0.252872,7.648000,20.988556

-1.702113,-4.098942,11.161449,15.800587,0.455307,-0.443647,0.329346,7.648000,20.988556

2.846029,-4.812658,10.806987,15.806469,0.375635,0.000546,0.446057,7.652000,20.988556

-6.408327,8.312049,9.403505,15.800587,0.355916,-0.052480,0.427937,7.664000,20.988556

-0.945287,0.808453,3.818320,15.803528,-0.019529,0.266742,0.052225,7.660000,20.988556

-1.187184,2.559212,12.778088,15.782940,-0.292120,0.245158,0.195049,7.656000,20.988556

-3.098409,0.068392,15.721567,15.803528,-0.458393,-0.015176,-0.083671,7.648000,20.988556

-4.918624,-1.076427,7.434799,15.791763,-0.702473,0.092742,0.121506,7.636000,23.783516

0.989889,-0.647719,8.438313,15.797646,-0.012335,-0.088453,-0.029046,7.636000,23.783516

-0.162116,-4.197138,11.604528,15.797646,-0.139437,-0.254192,0.165472,7.640000,23.783516

1.387462,5.632022,7.844347,15.797646,0.147809,0.179342,0.632847,7.644000,23.783516

-3.361862,1.881422,8.464658,15.794704,-0.046442,0.108729,0.559303,7.644000,23.783516

0.168397,1.383258,8.134145,15.785881,0.145678,0.009073,0.663757,7.640000,23.783516

0.745597,5.569752,7.338998,15.785881,0.255194,0.270739,0.424207,7.656000,23.783516

1.203046,-5.768270,10.071716,15.815292,0.003120,0.094873,0.360522,7.652000,23.783516

1.773060,1.713770,9.228669,15.809410,0.003120,0.151363,0.174798,7.652000,23.783516

1.308426,-1.088403,6.836044,15.812351,0.083059,0.083682,-0.079141,7.652000,23.783516

1.329982,3.716007,8.210786,15.818233,0.405478,0.427152,-0.321888,7.660000,23.783516

-0.940497,-0.870456,10.881232,15.803528,-0.405633,0.034653,-0.533726,7.652000,23.783516

4.338126,-1.150673,6.153463,15.812351,0.697255,0.036252,-0.707726,7.660000,23.783516

3.717816,4.590189,7.190507,15.806469,0.233077,-0.090052,-0.606470,7.664000,23.783516

2.743043,-1.519506,5.633744,15.791763,0.334599,0.029324,-0.251275,7.652000,23.783516

-2.403854,2.695728,9.403505,15.803528,-0.093073,0.127648,-0.280586,7.652000,22.884244

1.183886,-0.638139,8.311377,15.797646,0.158734,-0.124425,-0.209174,7.648000,22.884244

3.744161,1.146151,10.100456,15.791763,0.333534,-0.025301,-0.006396,7.648000,22.884244

-3.575018,-3.169675,9.384345,15.782940,0.319944,0.168151,0.027444,7.644000,22.884244

2.503541,-3.454682,10.098062,15.800587,0.236541,-0.471359,0.127634,7.648000,22.884244

1.064134,6.204432,7.707831,15.800587,0.264786,0.169749,0.122571,7.652000,22.884244

-3.627709,4.611744,9.798684,15.794704,-0.112791,0.165752,0.037836,7.640000,22.884244

0.024696,0.875513,12.890654,15.806469,-0.158090,0.027725,-0.162277,7.644000,22.884244

1.409017,3.454949,8.984377,15.797646,-0.204721,0.166552,-0.285383,7.644000,22.884244

-1.100963,0.650382,11.405742,15.815292,-0.282528,0.258215,-0.308298,7.636000,22.884244

1.143170,2.044283,14.545612,15.803528,0.070802,0.150298,-0.597144,7.636000,22.884244

-3.222950,-9.660177,18.291424,15.821175,-0.273201,0.079685,-0.456452,7.644000,22.884244

1.751505,5.083563,4.407495,15.806469,0.558428,-0.097246,-0.527331,7.656000,22.884244

-3.428922,-8.546494,8.251501,15.797646,0.002054,-0.369837,-0.385040,7.636000,22.884244

5.878124,-2.585290,11.343472,15.791763,0.350321,-0.546235,-0.403159,7.636000,22.884244

-0.542924,-2.573315,6.852809,15.800587,0.474492,0.097538,0.089797,7.648000,22.884244

-1.335675,3.442974,1.198168,15.806469,0.228014,-0.026900,0.182259,7.640000,21.613547

1.207836,-5.327587,11.693144,15.815292,-0.243091,-0.258722,0.100988,7.624000,21.613547

-1.651818,9.732296,16.083214,15.797646,0.783056,0.580368,0.023714,7.644000,21.613547

-1.088988,-0.238171,0.951481,15.788822,-0.109061,-0.186777,0.136960,7.640000,21.613547

-5.668265,-2.774496,17.474722,15.791763,-0.927367,-0.464165,-0.281919,7.624000,21.613547

-3.728300,-2.247592,12.445180,15.815292,-0.204987,-0.064205,-0.394099,7.632000,21.613547

1.768270,8.182718,6.165439,15.803528,-0.279330,-0.168658,-0.112448,7.628000,21.613547

-1.249454,1.455108,15.769467,15.797646,-0.166883,0.087945,0.030375,7.620000,21.613547

-0.581244,0.168983,12.756533,15.812351,-0.186868,-0.003451,-0.020785,7.632000,21.613547

0.027091,-2.700251,7.106681,15.800587,-0.190065,-0.081525,0.057022,7.632000,21.613547

-0.598009,2.178404,5.770260,15.821175,0.374569,-0.027166,-0.172669,7.636000,21.613547

-3.345096,12.388372,9.051437,15.800587,0.165929,0.151630,-0.199049,7.632000,21.613547

3.851937,1.833521,7.401269,15.812351,0.239206,0.005342,-0.213438,7.636000,21.613547

1.856886,1.730535,12.164963,15.812351,-0.038182,-0.018373,-0.067683,7.644000,21.613547

-0.360902,-1.782958,9.904064,15.809410,0.107573,0.030123,-0.015989,7.644000,21.613547

-3.349886,1.237161,4.294929,15.824116,0.067604,-0.196637,-0.114047,7.652000,21.613547

1.116825,-0.008249,10.507609,15.835880,-0.107728,-0.224615,-0.077542,7.640000,20.810799

1.150355,-4.108522,12.816408,15.815292,-0.029122,-0.173721,-0.043701,7.636000,20.810799

1.535953,3.704032,7.477910,15.812351,-0.053370,-0.050082,0.166005,7.644000,20.810799

-4.125873,3.490875,8.373647,15.812351,-0.257480,-0.064738,0.349064,7.640000,20.810799

-4.377350,-0.116025,12.821198,15.812351,-0.072289,-0.012511,0.218498,7.652000,20.810799

-1.776359,1.115016,7.801237,15.809410,0.211494,-0.146542,0.208372,7.660000,20.810799

-0.123795,-4.592316,7.463539,15.815292,-0.236696,-0.418333,0.370382,7.660000,20.810799

-0.990792,-0.056149,9.791499,15.806469,0.167794,-0.092450,0.577156,7.656000,20.810799

-0.418383,0.777318,10.136381,15.815292,0.212027,-0.129222,0.379708,7.664000,20.810799

-1.541647,3.198682,10.876443,15.818233,0.306354,0.098870,0.389833,7.672000,20.810799

-0.689020,-4.860558,7.295888,15.800587,-0.208718,-0.346122,0.134562,7.668000,20.810799

4.750070,0.358189,9.999866,15.809410,0.331935,-0.161197,0.020783,7.660000,20.810799

1.234181,2.274205,9.384345,15.818233,0.485151,0.273403,-0.073545,7.664000,20.810799

1.808985,-2.130236,7.825187,15.818233,0.315681,0.066362,0.001331,7.664000,20.810799

3.842357,2.379586,9.599897,15.824116,0.667944,0.065296,0.186789,7.668000,20.810799

2.740648,4.039334,7.003695,15.818233,0.094250,0.156959,0.362921,7.664000,22.818773

-0.976422,-5.835331,12.021262,15.800587,-0.181538,-0.082591,0.430069,7.660000,22.818773

-4.559371,0.123477,11.594949,15.812351,-0.469851,0.046111,0.263264,7.656000,22.818773

-3.713929,-0.262121,15.046171,15.832939,-0.121051,-0.014110,-0.226228,7.660000,22.818773

4.014799,9.298798,6.026527,15.824116,0.647160,0.170815,0.057555,7.680000,22.818773

-3.419342,-6.716698,11.848821,15.824116,-0.807725,0.076754,-0.154017,7.672000,22.818773

-0.523764,0.662357,3.406376,15.824116,-0.243358,-0.225148,-0.001067,7.676000,22.818773

0.937198,2.746024,4.728427,15.800587,-0.343814,0.073556,-0.063153,7.660000,22.818773

0.637821,5.639207,10.689631,15.803528,0.283172,0.359737,0.039169,7.664000,22.818773

2.316730,-0.674064,5.901987,15.815292,0.327405,0.391713,0.177996,7.664000,22.818773

0.424664,5.258399,6.270820,15.812351,0.664214,0.143903,0.302434,7.672000,22.818773

-0.380062,6.860667,15.417399,15.809410,-0.109594,0.163354,0.103386,7.664000,22.818773

2.007772,0.485125,18.308187,15.806469,0.258658,0.220910,0.056222,7.672000,22.818773

1.888021,3.943534,5.094865,15.827057,0.781723,0.390380,0.114045,7.672000,22.818773

-2.470914,3.763907,2.968088,15.806469,-0.606280,-0.301623,0.004795,7.652000,22.818773

1.717975,0.837193,14.993481,15.812351,0.298627,0.203590,-0.063952,7.664000,23.242505

1.945502,2.659803,6.436076,15.806469,0.266119,0.217180,-0.035974,7.664000,23.242505

1.648519,-4.201928,13.958833,15.806469,0.308486,0.157226,-0.075943,7.668000,23.242505

-1.864974,-1.766193,8.998747,15.809410,-0.253217,-0.288300,-0.241683,7.668000,23.242505

-2.576295,-0.336366,11.918276,15.800587,-0.627863,0.119921,-0.172935,7.660000,23.242505

-1.306935,11.643521,9.072993,15.812351,0.403347,0.093008,-0.310430,7.672000,23.242505

0.671351,11.377674,12.940949,15.838821,0.199769,0.668567,-0.146289,7.660000,23.242505

2.774179,6.515785,6.685158,15.806469,0.137684,0.305645,-0.142026,7.660000,23.242505

0.115707,2.590347,9.288545,15.812351,0.154737,0.296852,-0.099125,7.668000,23.242505

0.005536,-3.025973,12.090717,15.803528,-0.309707,0.032521,-0.024249,7.656000,23.242505

-3.632499,2.341265,5.954677,15.815292,0.412939,0.135376,-0.170271,7.660000,23.242505

0.142052,0.394115,7.856322,15.800587,-0.530604,0.086080,0.176130,7.656000,23.242505

-2.676886,1.548514,18.238733,15.797646,0.116100,0.115125,-0.126571,7.668000,23.242505

-0.322582,-2.355368,6.397756,15.815292,-0.445869,-0.211558,0.080204,7.668000,23.242505

-2.669701,-2.307467,11.324311,15.829998,0.066805,-0.532379,-0.136164,7.668000,23.242505

3.684286,0.362979,2.556144,15.809410,0.203500,-0.012511,-0.179597,7.660000,22.504903

4.218375,-0.515993,10.797407,15.821175,0.278376,-0.173987,0.050360,7.664000,22.504903

1.832936,3.591465,14.950371,15.806469,0.269849,0.162288,0.023980,7.656000,22.504903

-4.636012,1.591624,8.220366,15.800587,-0.636656,0.283795,0.227558,7.660000,22.504903

-3.455267,2.010753,8.938871,15.818233,0.362844,0.109795,0.037836,7.668000,22.504903

1.303637,3.486085,12.529006,15.809410,0.101711,0.052772,0.118841,7.664000,22.504903

-2.262548,5.466766,4.517665,15.803528,0.119564,0.067161,0.025046,7.676000,22.504903

-1.033903,4.415352,7.200087,15.800587,-0.188200,-0.026367,0.002397,7.668000,22.504903

-0.674650,-0.163925,13.889378,15.824116,0.078263,0.066628,-0.094063,7.672000,22.504903

3.104691,5.244029,8.929292,15.835880,0.378033,0.062365,-0.074877,7.672000,22.504903

-2.921178,-1.181808,7.355763,15.815292,-0.237495,0.256883,-0.050896,7.672000,22.504903

1.131195,-9.626647,12.603251,15.812351,0.014578,-0.411938,-0.194252,7.676000,22.504903

0.137262,8.613822,7.003695,15.829998,0.052416,-0.003718,-0.147888,7.676000,22.504903

-1.184789,-0.628559,7.240802,15.821175,0.190443,0.047443,-0.236886,7.668000,22.504903

3.590880,1.579649,8.514953,15.818233,0.232011,-0.016774,-0.373848,7.668000,22.504903

1.629359,2.781949,10.407019,15.821175,0.439852,0.150298,-0.381576,7.676000,22.771212

-2.042206,2.532867,6.634862,15.806469,-0.022993,-0.081258,-0.202246,7.668000,22.771212

-0.796796,2.472991,11.087204,15.806469,0.262388,-0.028765,-0.148421,7.672000,22.771212

-1.134493,2.494547,14.478552,15.827057,-0.014200,-0.021571,0.090329,7.672000,22.771212

-0.629144,-2.784076,9.233459,15.812351,0.062541,-0.108704,0.080470,7.672000,22.771212

-2.027836,1.843101,8.874207,15.818233,0.135286,0.035985,0.040501,7.672000,22.771212

-2.145192,2.597533,11.075230,15.809410,-0.249753,-0.018373,0.093527,7.668000,22.771212

-2.751132,1.160521,10.859677,15.797646,-0.073888,0.142837,-0.076210,7.668000,22.771212

-1.496141,0.001331,15.288069,15.812351,-0.314503,-0.314946,-0.185992,7.672000,22.771212

2.072438,-1.969770,10.136381,15.794704,-0.215646,-0.616048,-0.287514,7.664000,22.771212

-3.701954,5.445211,13.130156,15.809410,0.351920,0.285927,-0.200648,7.668000,22.771212

-1.723668,-0.341156,10.890813,15.815292,0.022838,-0.249663,-0.147355,7.668000,22.771212

-1.426686,7.001974,8.057505,15.829998,0.348189,-0.234741,0.205708,7.668000,22.771212

-0.181276,-2.951728,10.459709,15.806469,0.349788,-0.231010,0.443659,7.676000,22.771212

-1.850604,3.890843,4.920029,15.829998,0.407610,0.016800,0.505744,7.676000,22.771212

0.115707,0.295919,8.771220,15.815292,0.137950,-0.147874,0.791392,7.672000,22.547804

-1.141679,2.595137,5.303232,15.835880,0.678603,0.057302,1.032541,7.668000,22.547804

-1.110543,-5.289267,14.821040,15.832939,-0.373658,-0.410339,1.131665,7.668000,22.547804

-2.873278,-0.580658,6.879155,15.806469,0.142746,-0.411938,1.418645,7.672000,22.547804

-3.016979,-2.769706,11.970966,15.818233,-0.276665,-0.164927,1.044798,7.656000,22.547804

-3.031349,-1.653627,12.643967,15.821175,-0.138638,0.138307,1.222528,7.668000,22.547804

0.122892,1.366493,9.966335,15.824116,0.152073,0.377324,0.746893,7.660000,22.547804

4.112994,1.828731,6.795329,15.821175,-0.093606,0.312573,0.975251,7.668000,22.547804

-1.807494,-6.302360,12.179333,15.818233,0.081727,0.405036,0.691735,7.668000,22.547804

-1.215924,-3.773220,11.685959,15.829998,-0.104531,0.219844,0.660559,7.664000,22.547804

1.684445,-6.999310,9.250224,15.812351,-0.053903,0.199860,0.188121,7.656000,22.547804

-0.832721,2.166429,10.378279,15.824116,0.085191,0.261679,-0.006130,7.652000,22.547804

1.519188,1.285062,11.582973,15.821175,-0.177541,0.427685,-0.435401,7.656000,22.547804

0.192347,-0.144765,5.537943,15.835880,-0.126381,0.459128,-0.391435,7.660000,22.547804

2.668797,5.445211,12.742163,15.812351,0.225083,0.403437,-0.305101,7.660000,22.547804

-1.364415,3.550750,3.066283,15.812351,0.413206,0.583299,-0.336011,7.652000,22.547804

-1.323700,1.879027,13.812737,15.812351,-0.252684,0.306178,-0.578491,7.652000,21.636481

4.010008,0.288734,11.594949,15.818233,0.132088,0.504693,-0.751692,7.652000,21.636481

-1.194369,0.214488,4.711662,15.815292,-0.313437,0.348279,-0.741300,7.644000,21.636481

-2.813402,-3.303796,12.962504,15.821175,-0.484773,0.253685,-0.630718,7.648000,21.636481

-0.262706,-2.084731,9.166399,15.809410,-0.198858,0.245958,-0.774874,7.652000,21.636481

-0.092660,-3.016393,9.659773,15.821175,-0.197793,0.198527,-0.456984,7.640000,21.636481

-2.796637,1.795201,5.791816,15.812351,-0.102665,-0.333865,-0.851615,7.644000,21.636481

2.426901,1.265902,14.119299,15.809410,-0.109594,0.063697,-1.080773,7.644000,21.636481

-1.096173,0.897069,9.171188,15.832939,-0.184469,0.048775,-0.962997,7.636000,21.636481

1.246156,0.834798,13.058306,15.818233,-0.031254,0.118322,-1.011226,7.640000,21.636481

3.375329,-3.991166,12.155383,15.821175,-0.475180,-0.458303,-0.848951,7.640000,21.636481

-4.523446,-2.422428,10.421389,15.806469,-0.428549,-0.107905,-0.410087,7.648000,21.636481

-3.618129,2.324500,9.094548,15.815292,-0.208718,-0.207828,-0.062354,7.652000,21.636481

-2.090106,-7.887863,12.387700,15.809410,0.090253,-0.358113,-0.202246,7.652000,21.636481

1.222206,-1.459630,6.414521,15.815292,0.344459,-0.307485,0.001065,7.656000,21.636481

1.598224,0.935389,12.636782,15.815292,0.118232,-0.132419,0.019983,7.648000,21.636481

-2.605036,-0.511203,17.400476,15.827057,0.212027,0.086880,-0.219300,7.660000,21.636481

1.018629,4.264466,0.065324,15.827057,0.348988,-0.326937,-0.022118,7.660000,20.228303

-4.300709,-0.465697,8.308981,15.812351,0.000189,0.074889,-0.122041,7.644000,20.228303

3.040026,-1.548246,11.336287,15.821175,0.535779,-0.175586,-0.506014,7.656000,20.228303

0.618661,12.357237,3.394401,15.829998,-0.034984,-0.209960,-0.170537,7.644000,20.228303

1.468893,-1.644047,11.693144,15.818233,0.669010,0.538267,-0.406090,7.656000,20.228303

4.316571,0.604876,10.052556,15.835880,-0.006473,-0.640297,-0.430072,7.648000,20.228303

1.404227,5.447606,7.176137,15.827057,0.603993,0.204390,-0.137230,7.648000,20.228303

-3.893556,1.435948,11.321917,15.835880,-0.064561,-0.090318,-0.300571,7.636000,20.228303

-3.874396,1.845496,13.190031,15.824116,-0.091208,-0.023436,-0.559306,7.636000,20.228303

1.147960,-2.590080,6.201364,15.829998,-0.436809,-0.397816,-0.726644,7.620000,20.228303

3.154986,1.177286,13.204402,15.812351,-0.125581,-0.404744,-0.775407,7.608000,20.228303

-0.495023,0.523446,13.051121,15.827057,0.593867,-0.032229,-0.669355,7.640000,20.228303

-1.635053,3.316038,8.239526,15.803528,-0.105330,-0.390088,0.258467,7.632000,20.228303

-0.887806,-3.404387,11.760204,15.827057,0.103576,-0.309617,0.609132,7.632000,20.228303

-0.885411,0.971314,9.104128,15.827057,0.615451,-0.544370,0.705591,7.648000,20.228303

-1.412316,6.499020,9.295730,15.841763,-0.215379,-0.184379,0.908369,7.640000,20.228303

-2.370324,3.004686,9.441826,15.824116,-0.142368,-0.012777,0.707457,7.636000,20.228303

-1.508116,1.335357,5.094865,15.827057,0.162731,-0.202232,0.170535,7.644000,19.741338

4.491407,-5.452128,5.660089,15.821175,0.274112,-0.307485,-0.043968,7.636000,19.741338

5.684127,1.486243,11.202166,15.818233,-0.031786,-0.259255,0.014388,7.624000,19.741338

0.776732,7.492953,4.189548,15.835880,0.627175,0.429017,-0.040237,7.636000,19.741338

3.435204,1.045560,15.070122,15.847647,-0.695544,-0.171589,0.224893,7.624000,19.741338

-5.182076,4.283627,11.731464,15.844706,-0.218310,0.278733,0.397294,7.620000,19.741338

-4.049232,-5.258132,17.606447,15.841763,-0.142901,0.095939,0.088731,7.608000,19.741338

-0.832721,-9.983505,10.945898,15.829998,-0.435744,-0.462833,-0.052494,7.616000,19.741338

-2.252968,5.797279,4.402704,15.850588,0.986367,0.002144,0.294706,7.632000,19.741338

4.515357,-8.991967,6.268425,15.832939,-0.719526,-0.566486,0.566498,7.616000,19.741338

-4.003727,2.849010,15.894009,15.835880,0.170192,0.002411,0.337074,7.620000,19.741338

-0.305817,3.632181,-0.368174,15.829998,0.724701,0.249688,0.300568,7.632000,19.741338

0.635426,3.318433,11.697934,15.827057,0.264786,-0.029298,0.200112,7.624000,19.741338

-1.651818,7.102564,9.504096,15.815292,0.206431,0.225973,0.221429,7.644000,19.741338

3.092716,-3.164885,10.799802,15.827057,0.396952,-0.083124,0.110581,7.632000,19.741338

2.510726,6.273888,6.898314,15.853529,0.291433,-0.051148,-0.094596,7.644000,19.741338

-5.024005,0.712652,10.536350,15.847647,-0.931364,-0.003984,0.043965,7.620000,19.741338

-1.481771,-4.043857,2.527404,15.844706,0.517393,0.240895,0.102853,7.620000,19.741338

3.423229,4.137530,10.277688,15.835880,-0.171146,-0.135350,0.145754,7.628000,18.636159

-1.975145,-0.353132,12.639177,15.838821,0.047619,-0.013310,0.202777,7.624000,18.636159

-4.590507,-4.807868,3.600373,15.847647,-0.816252,-0.187310,0.102054,7.612000,18.636159

0.817447,5.893080,12.114668,15.850588,0.395619,0.249688,0.273389,7.616000,18.636159

2.429296,3.874078,14.765954,15.844706,0.119298,0.105532,0.254470,7.616000,18.636159

-1.024323,0.928204,8.639494,15.847647,0.068137,0.233167,0.477233,7.616000,18.636159

-1.036298,2.681358,8.967612,15.850588,0.300226,0.394377,0.176663,7.616000,18.636159

-0.586034,2.892120,7.892248,15.850588,0.068670,0.164420,0.204375,7.628000,18.636159

-1.778754,-8.477037,6.500741,15.847647,-0.268938,0.097005,-0.069282,7.612000,18.636159

3.705841,-5.981427,14.718054,15.853529,-0.160754,-0.450309,0.104185,7.608000,18.636159

3.741766,-6.613712,12.730187,15.856470,0.650890,0.152429,0.217965,7.648000,18.636159

-5.273087,-0.211825,7.192902,15.847647,-0.251085,-0.148407,-0.345870,7.632000,18.636159

0.309703,6.443934,6.196574,15.853529,-0.102932,0.285394,-0.245147,7.624000,18.636159

-2.140402,4.135135,12.105087,15.853529,0.257059,0.390380,-0.495089,7.628000,18.636159

-2.375113,1.993988,13.010405,15.871176,0.055080,0.310175,-0.885723,7.636000,18.636159

1.128800,-6.470011,7.192902,15.859411,-0.089875,-0.286168,-1.235588,7.632000,18.636159

0.992284,0.037257,11.547048,15.838821,-0.081348,-0.088453,-1.243582,7.620000,18.636159

0.501305,1.124595,8.579618,15.841763,-0.575370,0.115658,-0.722914,7.604000,18.636159

-1.433871,-1.840439,8.797565,15.859411,0.054814,0.001878,-0.794859,7.632000,18.674154

-8.583004,9.895157,17.443586,15.862352,0.092918,0.149498,-0.604605,7.640000,18.674154

0.827027,-14.107729,6.316325,15.859411,-2.118721,-0.782854,-0.518271,7.608000,18.674154

-4.621642,5.229659,13.985178,15.856470,1.525154,0.584631,0.024513,7.608000,18.674154

-3.843261,-4.029487,11.820080,15.862352,-0.733116,-0.715439,-0.292844,7.608000,18.674154

-0.257916,5.179364,13.496593,15.853529,0.413206,-0.056211,-0.217968,7.628000,18.674154

-4.394115,3.483690,16.444862,15.853529,-0.458659,-0.125491,-0.253674,7.616000,18.674154

2.261644,2.216724,-0.325064,15.862352,-0.027523,-0.241669,-0.071147,7.624000,18.674154

0.199532,1.888607,9.525652,15.838821,0.114768,-0.165993,-0.131101,7.616000,18.674154

4.146524,-8.081860,9.523256,15.847647,-0.327293,-0.856930,-0.208375,7.612000,18.674154

1.629359,3.320828,13.994758,15.853529,0.232544,-0.126557,-0.162543,7.624000,18.674154

1.236576,0.015701,3.631508,15.853529,0.225616,-0.239271,-0.061021,7.628000,18.674154

-2.118846,3.986644,11.206955,15.853529,0.165129,-0.083390,0.082336,7.632000,18.674154

-1.953590,0.801268,7.983259,15.853529,0.246933,0.070092,-0.207576,7.632000,18.674154

-2.135612,2.949600,9.508886,15.859411,-0.052038,0.021063,-0.148421,7.628000,18.674154

0.740807,14.397794,0.680844,15.871176,0.546704,-0.165727,-0.131101,7.636000,18.674154

5.564376,-11.851620,10.754296,15.856470,-0.573505,-0.097512,0.328014,7.620000,18.674154

-2.772687,3.565120,10.622570,15.850588,0.178452,-0.216621,0.308562,7.628000,18.674154

2.093993,0.564161,9.755573,15.874117,0.344992,0.015201,0.506810,7.640000,18.674154

-2.803822,5.758958,12.878679,15.871176,0.424131,0.484442,0.820970,7.648000,18.985470

-0.801586,-1.318324,6.333090,15.868235,0.229080,-0.274444,0.505478,7.644000,18.985470

-0.370482,9.262872,7.135422,15.874117,0.480088,-0.020771,0.187855,7.652000,18.985470

-4.475546,4.211776,9.084968,15.856470,0.847806,0.648582,0.111646,7.644000,18.985470

2.577787,-1.876364,3.542892,15.874117,0.692725,-0.102842,0.113512,7.652000,18.985470

1.897601,-9.279369,17.544176,15.865294,-0.071756,-0.295228,0.383172,7.656000,18.985470

-3.227741,0.849168,10.888417,15.859411,0.271714,0.391713,0.612063,7.672000,18.985470

-4.178564,-5.461708,5.837321,15.856470,-0.991051,-0.504667,0.267527,7.660000,18.985470

-5.526959,3.134017,15.450930,15.877058,-0.151428,0.051973,0.114844,7.652000,18.985470

-3.318751,2.662198,9.286150,15.859411,-0.183137,-0.053280,-0.061554,7.652000,18.985470

2.855609,-3.013998,7.995234,15.874117,0.429460,-0.124692,-0.082605,7.660000,18.985470

2.704723,5.562567,14.016314,15.871176,-0.158889,0.143903,0.311227,7.660000,18.985470

-1.886530,3.050191,14.811460,15.859411,-0.324895,0.504693,0.311760,7.660000,18.985470

-5.697006,0.190538,9.602292,15.871176,-0.387780,0.271805,0.314691,7.652000,18.985470

-4.192934,-1.054872,8.433522,15.874117,-0.582564,-0.178784,0.066614,7.644000,18.985470

2.479591,5.732613,11.779365,15.868235,0.525919,0.284328,-0.067150,7.644000,18.985470

-0.502208,0.990474,12.476315,15.868235,-0.550322,0.289658,0.045830,7.640000,21.457341

-1.958380,-2.350578,3.056703,15.865294,0.257592,-0.036226,-0.107652,7.648000,21.457341

0.333654,-2.934963,5.142766,15.865294,0.401482,-0.249130,-0.165741,7.644000,21.457341

0.228273,3.862103,9.992681,15.850588,0.630639,-0.092183,-0.072213,7.648000,21.457341

2.199374,3.023846,7.001300,15.874117,0.266652,0.086880,0.041300,7.644000,21.457341

-2.116452,1.881422,14.488132,15.862352,-0.085079,-0.114033,0.034639,7.652000,21.457341

2.515516,-4.130077,13.762441,15.871176,0.128624,0.109795,0.129233,7.648000,21.457341

0.443824,3.778277,6.294770,15.885881,0.554431,0.140439,0.167337,7.652000,21.457341

-2.969078,6.716966,-0.143043,15.877058,-0.127180,0.344815,0.170268,7.652000,21.457341

-4.006122,-10.438559,11.568604,15.879999,-0.647048,0.023994,-0.067416,7.644000,21.457341

-2.971473,-4.848583,12.691868,15.874117,-0.058966,-0.268048,-0.236620,7.644000,21.457341

2.592157,-0.566288,5.799001,15.879999,-0.005407,0.026659,-0.256871,7.644000,21.457341

-1.304540,-0.137580,15.307229,15.879999,-0.281728,-0.029831,-0.252341,7.640000,21.457341

2.247274,1.958062,9.741203,15.882940,0.285570,0.273670,-0.473239,7.648000,21.457341

-1.168024,7.174415,0.726349,15.871176,0.137151,0.081284,-0.280586,7.632000,21.457341

-0.401617,-0.240566,16.765795,15.885881,0.046820,0.205189,-0.496421,7.644000,21.457341

0.836608,-0.190270,9.324470,15.885881,-0.149563,0.136442,-0.354929,7.640000,21.457341

0.395924,-2.961308,14.160014,15.877058,0.042823,-0.173721,-0.396231,7.628000,20.501151

2.558627,3.251373,10.584250,15.877058,0.500606,0.210785,-0.136430,7.652000,20.501151

-3.668424,4.262071,0.249740,15.888823,-0.542062,-0.146009,0.190253,7.632000,20.501151

-3.045719,-5.157540,12.210468,15.882940,0.088122,0.063964,-0.110317,7.636000,20.501151

-0.887806,1.790411,8.033554,15.871176,0.408410,-0.156934,-0.204378,7.652000,20.501151

0.846188,-4.290544,15.218613,15.891764,-0.348877,-0.155868,-0.114314,7.640000,20.501151

-1.522487,-6.716698,8.320956,15.882940,-0.038714,0.044778,-0.349600,7.640000,20.501151

-1.261430,10.041253,6.093588,15.868235,0.217356,-0.115365,-0.317092,7.636000,20.501151

-1.745224,-4.448615,12.799644,15.888823,-0.084546,0.008007,-0.304568,7.636000,20.501151

-0.016019,3.888448,13.551680,15.885881,0.306088,-0.000254,-0.098326,7.640000,20.501151

0.934803,-1.679972,7.652746,15.891764,-0.601483,-0.161996,0.167337,7.632000,20.501151

-4.525841,-0.171110,11.853611,15.891764,0.076930,-0.125491,0.298437,7.632000,20.501151

0.673746,3.878868,6.404941,15.885881,0.121163,-0.144410,0.233420,7.628000,20.501151

-1.510512,1.431158,11.312336,15.897646,-0.370460,-0.063672,0.279784,7.624000,20.501151

-1.297355,2.523287,12.758928,15.897646,0.441984,0.221177,0.027444,7.628000,20.501151

-0.303422,10.469962,5.801396,15.903528,-0.090408,0.072491,-0.001600,7.624000,20.501151

-0.042365,-4.539626,12.531401,15.877058,0.018575,0.385318,-0.012525,7.628000,20.501151

0.230668,6.479859,9.587922,15.894705,0.363910,0.182007,-0.114314,7.624000,19.756646

-0.784821,1.814361,12.220049,15.877058,-0.308641,-0.035693,-0.241683,7.616000,19.756646

-2.039811,-2.896642,13.381633,15.885881,-0.767489,-0.113500,-0.219033,7.616000,19.756646

-1.242269,-1.727873,12.090717,15.894705,-0.175410,0.037850,-0.132700,7.612000,19.756646

-0.631539,-1.842834,7.149792,15.888823,-0.041912,0.014935,0.007193,7.604000,19.756646

-2.147587,-1.998510,10.181887,15.877058,0.214691,-0.002119,-0.050896,7.608000,19.756646

2.019747,-1.720688,8.991562,15.894705,0.133420,-0.129488,0.055156,7.616000,19.756646

-1.532067,7.272611,8.989167,15.888823,0.255194,0.130313,0.062617,7.612000,19.756646

1.126405,-4.388740,6.486372,15.897646,0.462768,-0.046352,-0.042635,7.616000,19.756646

0.173187,10.651983,10.907578,15.894705,0.335932,0.195063,0.138293,7.612000,19.756646

-1.395551,0.873118,6.958190,15.882940,-0.073088,0.242227,0.092728,7.608000,19.756646

0.467775,5.672738,15.747912,15.894705,0.421200,-0.005583,-0.208641,7.620000,19.756646

3.370538,2.844219,6.661208,15.909410,0.318612,0.208386,-0.284317,7.624000,19.756646

-0.832721,1.191656,9.928015,15.894705,-0.136506,0.028524,-0.430605,7.616000,19.756646

-0.890202,0.834798,5.674459,15.903528,0.330070,0.057569,-0.649370,7.612000,19.756646

3.212467,-1.330299,6.984535,15.903528,0.251730,-0.238471,-0.787664,7.616000,19.756646

2.182609,-4.472565,11.008168,15.903528,-0.132243,-0.362643,-0.616063,7.612000,19.756646

-0.171696,-2.867902,8.031159,15.909410,0.078529,-0.185445,-0.475104,7.604000,19.756646

0.726437,-0.154345,3.483017,15.894705,0.127292,-0.179316,-0.262733,7.596000,19.756646

0.697697,4.525523,8.253896,15.894705,0.479289,0.019997,-0.023716,7.600000,19.756646

1.222206,0.463570,12.452366,15.900587,0.287969,-0.055944,0.178529,7.604000,17.921860

-1.168024,3.986644,6.766589,15.888823,0.673806,-0.086588,0.202510,7.596000,17.921860

-2.779872,2.116133,11.269226,15.909410,0.292765,0.150831,0.411683,7.592000,17.921860

0.843793,3.397469,6.668393,15.906469,0.399883,-0.220618,0.307230,7.600000,17.921860

0.029486,2.853800,12.332615,15.897646,0.425996,-0.084989,0.383971,7.592000,17.921860

5.566771,-4.635427,7.956913,15.915293,-0.217511,-0.516391,0.480431,7.588000,17.921860

-2.329608,-2.755336,8.910131,15.897646,-0.310240,-0.128422,0.439662,7.572000,17.921860

-2.049391,4.707545,14.473762,15.897646,-0.105597,0.002144,0.424207,7.576000,17.921860

-2.473310,2.554422,11.606923,15.894705,0.133687,0.200659,0.316556,7.580000,17.921860

-3.182235,3.007081,12.291899,15.900587,-0.059765,0.041314,0.179594,7.572000,17.921860

-1.285380,3.088511,10.766272,15.906469,0.241871,-0.154802,0.185457,7.584000,17.921860

0.034276,2.609508,10.325588,15.894705,-0.012068,-0.230477,0.382639,7.580000,17.921860

-0.047155,-2.293097,9.446616,15.897646,0.289567,-0.043154,0.574492,7.584000,17.921860

0.395924,-0.036989,1.610112,15.894705,-0.033385,-0.240869,0.755420,7.572000,17.921860

-0.348927,-0.963862,10.014235,15.903528,-0.218843,-0.207828,1.050927,7.552000,17.921860

-3.151100,-0.204640,12.818804,15.888823,-0.093073,0.079152,1.147120,7.564000,17.921860

-0.437543,5.897870,9.961545,15.900587,0.517126,0.472184,1.219065,7.564000,17.921860

0.934803,3.227422,10.481264,15.885881,0.177920,-0.287767,0.954734,7.576000,17.921860

2.041302,-2.115866,8.931686,15.906469,-0.212981,-0.120162,1.071977,7.564000,17.921860

-1.718878,0.504285,10.859677,15.903528,0.239206,0.059700,1.107683,7.572000,17.921860

0.927618,2.894515,8.105405,15.888823,0.336198,0.029590,1.036804,7.564000,17.921860

-3.824100,-1.426100,11.032119,15.885881,-0.092806,0.103667,0.624054,7.564000,17.921860

1.713185,-3.584013,7.418034,15.894705,-0.050439,-0.108970,0.573959,7.568000,15.920660

1.727555,0.336634,8.414362,15.909410,-0.076286,0.065030,0.546780,7.544000,15.920660

0.918038,4.738680,7.818002,15.891764,0.091852,0.018665,0.457515,7.544000,15.920660

1.150355,1.261111,11.808105,15.909410,0.501139,0.290457,0.183858,7.560000,15.920660

0.671351,3.981854,8.431128,15.918234,-0.024059,0.101002,0.025046,7.556000,15.920660

0.108522,3.426209,9.542417,15.885881,0.094783,0.152163,0.455117,7.548000,15.920660

-0.188461,-1.265634,9.911250,15.909410,0.021772,-0.059941,0.813242,7.544000,15.920660

-3.290011,-0.151950,10.471684,15.909410,-0.011535,0.033321,1.056522,7.540000,15.920660

-0.571664,0.988079,8.095824,15.903528,0.197371,-0.003185,1.093028,7.540000,15.920660

-0.909362,1.732930,9.147239,15.918234,0.016976,0.178010,1.225726,7.536000,15.920660

0.446219,-1.993720,11.968572,15.915293,-0.012868,-0.027699,1.104486,7.524000,15.920660

-0.859066,2.437066,11.293176,15.921175,-0.039247,0.221710,0.919028,7.536000,15.920660

1.713185,-3.133749,8.699369,15.918234,-0.062963,0.020264,0.853745,7.536000,15.920660

-2.621801,3.531590,8.074269,15.927057,0.330336,0.220111,0.788728,7.552000,15.920660

-3.064879,-0.913566,13.609159,15.918234,-0.154093,0.139106,0.737034,7.548000,15.920660

-0.231571,-1.344670,10.129196,15.921175,0.071601,0.153495,0.884654,7.548000,15.920660

-2.454149,2.252650,10.368698,15.927057,0.239739,0.265942,0.455117,7.568000,15.920660

4.306991,-2.091916,12.718212,15.915293,-0.035783,-0.095114,-0.021851,7.560000,15.920660

0.604291,-0.817765,8.871811,15.918234,-0.242825,0.258481,-0.466311,7.548000,15.920660

-0.803981,-1.303954,16.159855,15.921175,-0.129845,0.453798,-0.556641,7.544000,15.920660

-1.694928,-3.152910,10.122011,15.897646,-0.392044,0.071158,-0.533992,7.532000,15.920660

-0.952472,3.356754,8.864626,15.927057,0.124361,0.059434,-0.296841,7.516000,15.920660

-1.845814,3.596256,8.890971,15.935881,-0.010736,0.170016,0.099389,7.520000,14.491422

1.933527,-2.372133,11.044094,15.903528,-0.059765,-0.255258,0.177996,7.520000,14.491422

-2.394274,0.729417,8.958032,15.915293,-0.032586,-0.009580,0.224627,7.512000,14.491422

-2.648146,1.206026,8.766430,15.918234,-0.021394,-0.111635,0.257135,7.512000,14.491422

-3.929481,2.504127,11.966176,15.921175,-0.190598,-0.089252,0.429803,7.512000,14.491422

1.466498,1.550909,7.849137,15.924116,0.177387,-0.150539,1.110348,7.520000,14.491422

-1.512907,-2.257172,9.580737,15.918234,0.057212,-0.093516,1.503913,7.528000,14.491422

0.280963,1.301827,7.358159,15.927057,0.018308,-0.199035,1.422375,7.536000,14.491422

-1.955985,-0.441747,13.422348,15.924116,-0.072822,-0.156667,1.102620,7.540000,14.491422

-0.109425,-2.702646,11.925461,15.953527,0.059610,0.079152,0.793790,7.556000,14.491422

4.000429,5.078773,11.654824,15.915293,0.121163,-0.103641,0.487092,7.556000,14.491422

1.921551,1.653895,11.094389,15.918234,0.446247,0.467921,0.340271,7.556000,14.491422

1.203046,3.536380,7.631191,15.915293,0.258125,0.116457,0.180394,7.552000,14.491422

2.915485,1.177286,6.596542,15.927057,0.310884,0.065296,0.396495,7.552000,14.491422

-2.985843,1.938902,10.119617,15.921175,0.066538,0.107131,0.578489,7.552000,14.491422

-0.729735,2.904095,15.110837,15.924116,0.111837,0.207854,0.656296,7.552000,14.491422

-0.631539,-0.130395,9.748388,15.935881,0.185913,-0.043954,0.594743,7.556000,14.491422

-0.430358,5.054823,9.530441,15.924116,0.315414,0.151097,0.857475,7.572000,14.491422

-0.842301,3.354359,8.423943,15.932940,0.007117,0.153495,0.714651,7.580000,14.491422

2.129918,5.543406,12.282319,15.921175,0.291433,-0.076728,0.653631,7.584000,14.491422

-5.158126,7.749220,11.003379,15.921175,0.694590,0.681357,1.129533,7.620000,15.744297

-0.217201,2.255045,8.474237,15.947645,0.180051,0.092742,-0.861475,7.580000,15.744297

0.292938,-4.003141,1.176613,15.941763,0.012446,-0.381561,-0.946742,7.564000,15.744297

4.972806,2.470596,15.027012,15.935881,-0.158090,0.085814,-0.498553,7.544000,15.744297

-2.478099,1.768856,10.986613,15.929998,0.333267,0.487906,-0.274991,7.564000,15.744297

-7.627391,5.399705,4.929609,15.929998,0.083059,0.102601,-0.594479,7.564000,15.744297

1.998192,-0.817765,8.926897,15.932940,0.092652,-0.278174,-0.273125,7.564000,15.744297

-0.138165,1.400023,2.817201,15.929998,-0.112258,-0.038891,0.113512,7.556000,15.744297

-2.648146,-1.057267,9.096943,15.953527,0.271181,-0.094581,0.422075,7.568000,15.744297

4.050724,3.105277,4.932003,15.944704,0.406278,0.092209,0.524663,7.568000,15.744297

-0.236361,-0.892011,11.429692,15.941763,-0.168482,-0.357580,0.473769,7.572000,15.744297

-4.937785,12.436273,-2.425496,15.947645,1.184881,0.438344,0.310427,7.572000,15.744297

9.741290,-4.609081,6.258844,15.929998,-0.633459,-0.639764,-0.022118,7.556000,15.744297

2.716698,-3.734899,12.679893,15.938822,-1.262577,-0.873984,0.219830,7.552000,15.744297

-2.605036,11.538140,9.997471,15.944704,0.375635,0.372261,0.414348,7.548000,15.744297

2.723883,-2.903827,10.730347,15.938822,0.043622,0.486840,0.447656,7.548000,15.744297

-0.413593,1.675450,5.837321,15.935881,-0.143168,0.287526,0.144954,7.528000,15.744297

-0.451913,0.403695,10.351933,15.950586,0.489148,0.085814,-0.305900,7.512000,15.744297

-0.399222,-0.089679,9.255014,15.929998,-0.308641,0.079952,-0.326418,7.488000,15.744297

-2.609826,4.403378,10.066926,15.935881,0.082526,0.020264,-0.203312,7.476000,15.744297

-2.497260,2.892120,9.405901,15.941763,-0.227903,-0.184379,-0.141493,7.472000,15.744297

2.541862,3.751932,7.635981,15.935881,-0.080283,-0.080992,0.253937,7.484000,15.744297

-3.869606,10.548998,10.900393,15.944704,-0.274267,0.246757,0.522798,7.496000,15.744297

2.175424,2.331685,8.977192,15.944704,0.198704,0.147100,0.743429,7.500000,15.744297

0.434244,-1.490766,7.688671,15.929998,-0.175143,0.033054,1.098357,7.508000,15.744297

-2.945128,0.719837,8.194020,15.941763,-0.221508,0.246491,1.110614,7.524000,15.744297

-1.268615,8.003092,11.630874,15.956469,-0.198858,0.392512,1.004562,7.540000,15.744297

0.209112,6.575660,10.778247,15.953527,0.573350,0.687486,0.777270,7.556000,8.108013

-2.193092,-0.654904,8.905341,15.950586,0.115834,-0.046352,0.356525,7.568000,8.108013

-1.579967,9.186232,9.808264,15.938822,-0.070690,0.663504,0.149484,7.576000,8.108013

-5.287457,8.642562,9.336445,15.953527,0.366841,0.498298,0.223827,7.580000,8.108013

-2.348768,0.554581,11.832055,15.962351,0.070269,-0.049016,0.186789,7.580000,8.108013

-3.972592,2.650223,6.982141,15.944704,0.544039,0.235299,0.173466,7.580000,8.108013

-7.368729,3.670501,13.781601,15.956469,-0.109594,-0.482817,-0.065551,7.576000,8.108013

2.719093,-1.814093,15.800603,15.938822,0.604792,-0.122293,0.239016,7.584000,8.108013

-3.675609,-12.558151,11.745834,15.944704,-0.461590,-0.730894,0.360522,7.564000,8.108013

9.501788,8.388690,6.721083,15.965292,0.074266,0.070625,0.777270,7.564000,8.108013

3.162172,-3.754059,10.648915,15.935881,0.234676,0.137241,0.374112,7.544000,8.108013

2.525096,3.419024,10.905183,15.944704,0.166195,-0.154535,0.766611,7.540000,8.108013

-3.644474,4.635695,7.176137,15.956469,0.097448,0.454331,0.800985,7.528000,8.108013

-2.954708,1.500613,11.420112,15.956469,-0.059232,0.109529,0.491089,7.532000,8.108013

-1.366810,4.003409,14.306110,15.950586,-0.170347,0.279265,0.359190,7.528000,8.108013

-3.074459,1.107830,8.043135,15.947645,0.323408,0.129514,-0.132433,7.532000,8.108013

-4.875514,3.622601,6.194179,15.968235,-0.667566,-0.079393,-0.569965,7.520000,8.108013

-0.952472,7.595939,9.348420,15.950586,-0.184736,0.069027,-0.675750,7.532000,8.108013

0.082176,9.816121,9.233459,15.959410,0.020440,0.151363,-1.180164,7.528000,8.108013

1.717975,5.018898,7.873087,15.962351,0.406278,-0.054079,-1.052528,7.540000,8.108013

-1.896110,6.156532,9.348420,15.965292,0.061475,-0.151604,-0.606203,7.552000,8.108013

-0.744105,7.612703,5.331972,15.956469,-0.020595,-0.004517,0.014388,7.552000,8.108013

4.249510,2.504127,8.993958,15.965292,-0.407232,0.006408,0.223294,7.556000,8.108013

4.570443,7.933637,4.687712,15.941763,0.091852,0.137774,-0.168406,7.568000,8.108013

4.093834,-0.616584,15.865269,15.965292,-0.858353,0.133510,-0.433269,7.560000,8.108013

2.034117,0.042047,12.437995,15.971176,0.010048,0.516151,-0.443661,7.572000,8.108013

-2.676886,2.908885,7.937753,15.968235,-0.064295,0.302981,-0.507346,7.568000,8.108013

-1.862579,-8.273461,9.647798,15.959410,-0.324096,-0.141479,-0.395965,7.540000,8.108013

-2.406249,0.065997,11.724279,15.965292,0.025503,0.108729,-0.598742,7.536000,8.108013

3.157382,1.771251,4.577541,15.974117,0.032431,-0.320275,-0.138029,7.516000,8.108013

3.166962,-2.628400,6.323510,15.974117,-0.411496,-0.351185,0.243279,7.504000,8.108013

2.326310,2.108948,11.070439,15.962351,0.027102,-0.161463,0.491089,7.492000,8.108013

-1.984725,2.707703,10.555510,15.947645,0.184048,0.122053,0.737034,7.496000,8.108013

-0.346532,2.168824,4.728427,15.974117,0.037494,0.244892,0.491888,7.508000,8.108013

-1.903295,2.118529,5.511598,15.968235,-0.440806,-0.115898,0.398360,7.516000,8.108013

-1.565597,3.608231,12.018867,15.953527,-0.046975,0.452466,0.601937,7.524000,8.108013

-2.815797,13.367935,1.193378,15.982941,0.260256,0.583033,0.735169,7.528000,8.108013

-2.952313,3.725587,9.951965,15.971176,-0.571106,0.232102,1.083169,7.508000,8.108013

1.799406,-0.731545,11.520702,15.971176,0.390823,0.676827,0.504679,7.544000,8.108013

-8.125556,12.098576,9.290939,15.965292,-0.398705,0.399440,0.288578,7.552000,8.108013

-2.300868,8.197088,11.446457,15.980000,0.485151,0.987256,-0.488960,7.560000,8.108013

-4.564161,-1.131513,8.543694,15.980000,-0.195394,0.041048,-0.663493,7.556000,8.108013

-5.098251,0.468360,13.803157,15.959410,-0.239894,-0.030897,-1.048531,7.564000,8.108013

-6.504127,12.079415,14.047448,15.977058,0.430259,0.576105,-1.053328,7.576000,8.108013

-0.612379,2.257440,9.149633,15.974117,0.353785,-0.549166,-1.129003,7.568000,7.927304

2.802919,0.758158,16.083214,15.988823,-0.071489,-0.446578,-0.694136,7.548000,7.927304

-0.902177,1.704190,13.039145,15.974117,0.412673,-0.148407,-0.583021,7.540000,7.927304

2.656822,-0.185480,10.979428,15.991764,0.103044,-0.497206,-0.613664,7.516000,7.927304

3.121456,3.258558,3.873405,15.980000,0.245601,-0.072465,-0.292044,7.520000,7.927304

-2.327213,6.726546,15.216218,15.971176,-0.267606,-0.106306,0.066881,7.508000,7.927304

-5.881422,3.430999,7.209667,15.959410,-0.182071,-0.325871,0.289643,7.512000,7.927304

-1.623077,3.105277,6.438471,15.965292,0.669276,0.162555,0.486826,7.520000,7.927304

-3.922296,-2.448774,8.064690,15.956469,-0.337952,-0.742352,-0.232090,7.504000,7.927304

-1.898505,5.967325,8.591594,15.971176,0.091852,-0.257923,-0.327484,7.500000,7.927304

-1.639843,3.478900,9.379556,15.971176,0.151273,-0.368238,-0.392501,7.524000,7.927304

0.510885,12.412323,6.428891,15.977058,-0.123450,-0.365307,-0.489226,7.528000,7.927304

0.606686,1.016820,9.451406,15.982941,0.269050,-0.112701,-0.332014,7.536000,7.927304

-2.032626,8.130028,8.160490,15.977058,-0.110126,-0.230477,-0.381576,7.544000,7.927304

0.225878,10.534627,9.104128,15.974117,0.236808,0.031189,-0.086069,7.552000,7.927304

0.340838,7.476188,11.623689,15.974117,0.391356,0.013336,0.048761,7.556000,7.927304

-1.979935,2.499337,8.361671,15.968235,-0.017397,0.066628,0.000798,7.572000,7.927304

1.686840,7.813886,5.046965,15.988823,-0.338485,-0.145209,-0.042635,7.568000,7.927304

-0.054340,-1.368620,7.379714,15.980000,-0.260678,0.029057,-0.031977,7.572000,7.927304

-0.023204,-2.968493,10.351933,15.974117,-0.038182,-0.387957,-0.310697,7.576000,7.927304

3.583695,0.010911,10.177097,15.991764,0.345791,-0.021038,0.018918,7.572000,7.927304

-11.229501,9.406573,2.843547,15.982941,0.634370,0.492702,0.019450,7.556000,15.872905

7.125929,-4.470170,8.246711,15.994705,0.347923,0.029324,0.207040,7.548000,15.872905

5.638622,-6.793339,7.774892,15.985882,-0.461857,-0.755675,0.513205,7.552000,15.872905

-3.189420,1.558094,11.927856,16.000587,-0.285192,0.049042,0.519867,7.532000,15.872905

2.922670,1.922137,9.616662,15.991764,-0.042445,0.053838,0.646170,7.528000,15.872905

-0.619564,8.541971,7.767707,15.988823,-0.007272,0.127115,0.334143,7.512000,15.872905

0.168397,5.203314,4.644601,16.000587,0.007916,0.474050,0.450587,7.500000,15.872905

-0.566874,4.927886,9.801079,15.974117,0.089720,0.192932,0.555040,7.516000,15.872905

-0.195646,-0.501623,11.865585,15.974117,0.104376,0.404236,0.525196,7.520000,15.872905

-1.802704,8.149188,5.997787,15.980000,0.141148,0.436478,0.895046,7.536000,15.872905

-3.699559,6.599610,9.832214,15.991764,-0.063495,0.501229,0.875062,7.544000,15.872905

-9.004528,10.249620,10.004656,15.977058,-0.673428,0.819918,0.326948,7.544000,15.872905

-1.505722,2.985526,5.954677,15.977058,-0.538332,0.316037,-0.011459,7.552000,15.872905

-4.046837,1.500613,10.567485,15.988823,-0.255348,0.122586,0.247276,7.576000,15.872905

-8.501574,0.640802,8.572433,15.982941,-0.389379,0.010671,-0.026381,7.568000,15.872905

0.364789,7.782750,7.554550,15.985882,-0.089342,0.204390,0.350130,7.564000,15.872905

-0.976422,-1.229709,9.540022,15.950586,0.266385,0.143636,0.214501,7.560000,15.872905

-0.425568,-3.900156,11.580578,15.980000,-0.132509,-0.225947,0.001864,7.552000,15.872905

2.347865,5.986485,11.599738,15.968235,0.302624,0.088212,0.176130,7.536000,15.872905

0.290543,1.953272,10.038186,15.971176,0.059610,-0.079659,0.457248,7.516000,15.872905

-3.306776,-1.004577,6.974955,15.977058,-0.152760,0.346947,-0.176399,7.500000,15.872905

2.927460,-0.774655,9.748388,15.977058,0.296229,0.011737,-0.479900,7.504000,15.872905

-0.820746,2.662198,9.614267,15.997646,0.429460,0.270206,-0.652568,7.508000,15.872905

-0.059130,0.446805,4.177573,15.965292,-0.005940,-0.087653,-0.859876,7.500000,15.872905

-2.638566,1.340147,7.247987,15.965292,-0.079217,-0.228878,-0.984847,7.500000,15.872905

-3.759435,9.044926,7.614426,15.977058,-0.077884,-0.112701,-1.176700,7.500000,15.872905

-2.001491,2.779554,11.626083,15.974117,-0.017664,-0.159865,-1.048265,7.512000,15.872905

-1.096173,2.449041,6.254055,15.977058,-0.169281,-0.501203,-0.748494,7.516000,15.872905

-4.286339,6.946888,3.403981,15.965292,0.490214,-0.241136,-0.320023,7.540000,15.872905

-0.614774,0.422855,10.375883,15.985882,0.266119,-0.444713,-0.032243,7.552000,15.872905

0.508490,9.219762,6.697133,15.953527,0.640498,-0.301356,0.110847,7.568000,15.872905

2.738253,7.873761,7.374924,15.977058,-0.445869,-0.561157,0.236617,7.568000,15.872905

1.018629,1.651500,13.321757,15.971176,-0.012335,-0.259522,0.405288,7.568000,15.872905

2.050883,7.207945,8.991562,15.994705,0.013512,-0.376499,0.517469,7.576000,15.872905

4.323756,1.016820,7.633585,15.965292,-0.420022,0.067161,0.567830,7.556000,15.872905

2.264039,3.519615,9.235854,15.982941,-0.075220,0.016267,0.104185,7.544000,15.872905

1.100060,-5.016234,15.185082,15.974117,-0.359802,0.251020,-0.100458,7.544000,15.872905

-3.407367,4.257281,6.170228,15.971176,0.092918,0.217446,-0.199582,7.560000,15.872905

-7.663317,2.961576,5.691225,15.974117,-0.060031,0.304313,-0.446326,7.544000,15.872905

0.391134,1.991592,10.275292,15.977058,0.257059,-0.089252,-0.140960,7.540000,15.872905

-0.621959,9.641285,9.722043,16.003529,-0.138638,0.170549,0.204642,7.536000,15.872905

-2.801427,-3.775615,10.428574,15.982941,0.196305,0.120987,0.435665,7.540000,15.872905

-0.305817,0.573741,10.359118,15.985882,-0.195394,-0.458303,0.268060,7.540000,15.872905

-2.813402,8.283309,10.969849,15.977058,-0.177541,0.314705,0.621656,7.540000,15.872905

-3.783385,7.033109,9.022697,15.985882,-0.037915,0.296319,0.702660,7.536000,15.872905

2.738253,6.522970,4.840993,15.982941,-0.165284,0.237164,0.927288,7.540000,7.922931

-1.486561,2.429881,10.723162,15.997646,0.144878,0.535869,1.152715,7.556000,7.922931

-3.800150,2.501732,12.164963,15.997646,-0.426417,0.375991,1.020550,7.568000,7.922931

-4.219279,1.555699,16.586168,15.997646,-0.597220,0.564913,0.805781,7.568000,7.922931

-7.184313,4.448883,5.916357,15.994705,0.076930,0.804729,0.252872,7.584000,7.922931

-0.176486,5.354200,9.784313,15.985882,0.240272,0.023728,-0.224096,7.580000,7.922931

-6.307735,-3.521742,14.203125,15.982941,0.335132,-0.017574,-0.379177,7.584000,7.922931

-5.982013,2.896910,6.819279,15.977058,-0.270004,-0.191041,-0.463380,7.576000,7.922931

-2.013466,-1.998510,9.278965,16.000587,-0.255615,-0.254725,-0.367720,7.556000,7.922931

-1.060248,-5.322797,16.262840,15.988823,-0.314237,-0.203565,-0.160945,7.548000,7.922931

7.066053,7.267821,1.808898,15.982941,0.347390,0.089278,0.333876,7.548000,7.922931

0.405504,2.578372,7.312653,15.977058,-0.022727,0.483642,0.326948,7.532000,7.922931

-2.535580,12.098576,16.550243,15.985882,-0.138371,0.668301,0.161475,7.532000,7.922931

-3.737880,-0.880036,5.710385,15.988823,-0.186868,0.242227,-0.244614,7.528000,7.922931

-4.791688,-3.993561,6.622888,15.977058,-0.575636,-0.143078,-0.772476,7.500000,7.922931

-3.869606,3.366334,5.554708,15.982941,0.123028,0.094607,-1.172170,7.500000,7.922931

-3.438502,4.072865,13.939672,15.982941,-0.169015,-0.539307,-1.542020,7.496000,7.922931

-0.243546,6.067916,9.312495,15.982941,0.114501,-0.289898,-1.092231,7.516000,7.922931

-4.693492,11.262713,8.232341,15.980000,0.016177,-0.123626,-0.435401,7.532000,7.922931

1.976637,-0.844111,13.233142,15.982941,-0.308374,-0.190508,-0.486295,7.532000,7.922931

-2.530790,15.401307,7.633585,15.994705,0.509665,0.276601,-0.661361,7.552000,7.922931

3.042421,10.659168,11.147079,16.000587,-0.089076,-0.278441,-0.832697,7.552000,16.435163

3.250787,4.877591,10.792617,15.985882,0.013246,0.256350,-0.504148,7.548000,16.435163

-2.952313,3.323223,8.304192,16.000587,0.332201,0.077820,-0.735438,7.556000,16.435163

1.124010,1.685030,7.101892,15.965292,0.406544,0.150564,-0.467909,7.560000,16.435163

-0.011229,-0.484858,7.286308,15.988823,0.169659,-0.178784,-0.362657,7.548000,16.435163

-3.800150,1.354517,10.004656,15.994705,0.627175,0.010138,-0.351465,7.556000,16.435163

-0.435148,2.540052,5.116420,15.997646,0.488082,-0.088453,-0.462314,7.556000,16.435163

5.940394,1.955667,12.229629,15.997646,0.334866,-0.550765,-0.246479,7.556000,16.435163

5.118903,-5.310822,6.701923,16.000587,0.333534,-0.131087,-0.207309,7.548000,16.435163

3.495080,4.115975,9.839399,15.977058,0.042823,-0.213157,-0.294975,7.528000,16.435163

-0.734525,2.995106,9.602292,15.997646,0.340462,-0.018107,-0.123373,7.536000,16.435163

-4.492311,5.186549,10.452524,16.024117,-0.092273,-0.080725,0.062351,7.520000,16.435163

-0.466283,7.509718,7.415639,15.991764,0.546970,0.101801,-0.024516,7.540000,16.435163

0.144447,6.283468,4.884103,15.997646,-0.105064,-0.143078,0.311493,7.520000,16.435163

-1.524882,1.958062,16.179016,15.994705,-0.132776,-0.079926,0.244078,7.532000,16.435163

-5.692215,4.139925,5.197851,16.015293,0.474492,-0.119096,0.644038,7.548000,16.435163

-1.556017,1.924532,12.545772,15.997646,-0.461324,-0.164661,1.784498,7.540000,16.435163

-7.790253,3.304063,16.737055,16.000587,0.036961,0.540399,2.463178,7.568000,16.435163

-4.121083,13.403861,5.135580,16.009411,-0.001676,0.559584,2.267061,7.564000,16.435163

-3.280431,1.804781,16.634069,16.012352,-0.090408,0.436745,1.194816,7.560000,16.435163

-9.852365,2.073023,7.628796,16.006470,0.028168,0.440742,0.201178,7.564000,16.591854

-7.574701,-12.251589,14.057029,16.018234,-0.873808,-1.302722,-0.714121,7.536000,16.591854

-0.808771,1.000055,4.187153,16.000587,0.223751,-0.259522,-0.333346,7.544000,16.591854

-0.880621,-2.398478,8.565248,16.006470,-0.452264,-0.518523,0.316023,7.528000,16.591854

4.817130,0.511470,16.392172,16.009411,0.298094,-0.197702,0.436997,7.536000,16.591854

5.506896,7.904896,-0.598096,15.985882,0.591469,-0.054079,0.431668,7.520000,16.591854

0.096547,-0.221405,2.062770,16.003529,-0.568442,0.084215,0.694133,7.488000,16.591854

1.353932,-0.288466,18.756058,16.018234,0.143279,-0.030897,0.209172,7.496000,16.591854

-1.093778,-1.040502,10.991404,15.997646,-0.315835,0.029857,0.295239,7.516000,16.591854

-2.674491,5.691898,7.554550,16.021175,-0.319832,0.008273,0.191319,7.508000,16.591854

-0.332162,-1.689553,15.173107,16.006470,-0.048307,-0.003984,0.410084,7.500000,16.591854

-1.558412,6.975628,6.780959,16.029999,0.363111,0.366399,0.754088,7.532000,16.591854

3.725001,11.461500,8.874207,16.009411,0.031898,0.068227,1.165239,7.520000,16.591854

-0.095055,2.252650,10.110036,16.003529,0.397218,0.469786,1.371215,7.528000,16.591854

0.939593,10.275966,6.392965,16.018234,0.578946,0.247024,0.454584,7.544000,16.591854

-1.285380,-1.421310,8.608358,16.006470,-0.328892,0.277667,-0.485496,7.540000,16.591854

-0.499813,7.969562,7.640771,16.006470,-0.012335,0.271805,-1.017888,7.556000,16.591854

2.774179,2.197564,9.599897,16.009411,-0.151162,0.215048,-1.509511,7.556000,16.591854

4.156105,-2.853532,9.868139,15.997646,0.096915,-0.009313,-1.493257,7.564000,16.591854

0.019906,-5.938317,8.855046,15.994705,-1.259912,-0.587004,-1.506047,7.564000,16.591854

0.007931,3.378309,9.269384,16.006470,0.253062,0.186537,-0.901177,7.568000,16.591854

-0.825536,4.848851,10.486054,16.009411,0.225616,0.360270,-0.477769,7.540000,16.591854

1.720370,0.341424,11.947017,16.021175,0.471028,0.082083,-0.063952,7.536000,16.591854

-3.754645,8.843743,7.046806,16.029999,0.844609,0.638723,-0.523067,7.544000,16.591854

6.069726,9.562249,5.106840,16.003529,0.364710,-0.286434,-0.240084,7.540000,16.591854

-1.486561,3.533985,11.525493,16.012352,0.101445,0.346947,0.490290,7.512000,16.591854

-0.404013,0.513866,6.546247,16.021175,-0.182604,-0.211026,0.239282,7.516000,16.591854

1.871256,4.384217,8.404782,16.015293,-0.008338,0.069027,0.362388,7.504000,16.591854

-3.230135,-3.021183,7.547365,16.018234,-0.361667,0.188402,0.073809,7.512000,16.591854

-6.635853,0.724627,5.810976,16.021175,-0.376855,-0.265384,-0.720782,7.512000,16.591854

-1.170419,-2.008090,12.529006,16.015293,-0.615073,-0.346388,-0.499086,7.524000,16.591854

-3.136730,6.580450,7.585685,16.012352,0.119564,0.083682,-0.535058,7.540000,16.591854

-1.465006,4.015384,4.553591,16.018234,0.066272,-0.159865,-0.445260,7.544000,16.591854

4.223165,2.652618,5.411007,16.012352,0.143279,-0.071133,-0.135364,7.552000,16.591854

-2.674491,-0.827345,7.961703,16.029999,-0.229235,-0.240070,0.058354,7.556000,16.591854

-7.533986,-1.802118,10.133986,16.032940,-0.519413,-0.017041,-0.132966,7.560000,16.591854

-8.484809,1.495824,7.918593,16.009411,-0.476246,-0.152670,-0.061821,7.552000,16.591854

-7.739957,-0.355527,8.529324,16.009411,0.398018,0.245158,-0.219300,7.552000,16.591854

-0.552504,-0.005854,7.130631,16.018234,0.860330,-0.604058,-0.647239,7.552000,16.591854

5.736818,0.063602,12.742163,15.997646,0.290900,-0.817228,0.026645,7.544000,16.591854

0.855768,-2.113471,14.320480,16.021175,0.001788,-0.766600,-0.103389,7.512000,16.591854

5.937999,6.242753,7.511440,16.024117,0.293031,-0.356514,-0.003998,7.496000,16.591854

-0.085475,5.969720,10.440549,16.015293,0.313815,-0.045819,0.361855,7.488000,16.591854

-0.868646,4.233331,10.366303,16.024117,0.280508,-0.162796,0.228091,7.492000,2711.019051

0.240248,4.233331,8.323352,16.018234,0.303423,0.035186,0.277919,7.504000,2711.019051

-3.615734,1.922137,5.425378,16.038822,-0.387514,-0.371169,0.157744,7.492000,2711.019051

-3.194210,4.269256,9.405901,16.041763,-0.048574,-0.305087,-0.124173,7.504000,2711.019051

-1.685348,4.230936,11.099179,16.041763,0.060676,-0.276309,0.011457,7.512000,2711.019051

-2.837352,5.045243,4.740402,16.015293,0.257858,-0.269114,0.246743,7.524000,2711.019051

-0.689020,1.141361,3.080653,16.029999,0.063074,-0.390088,0.829230,7.516000,2711.019051

-3.570228,6.985209,8.840676,16.027058,-0.338751,-0.344790,0.971521,7.528000,2711.019051

1.104850,1.562884,9.664562,16.024117,-0.162886,-0.181715,1.043199,7.540000,2711.019051

-0.763265,11.974034,5.451723,16.044704,0.161665,-0.090851,1.000032,7.556000,2711.019051

4.134550,5.696688,8.593988,16.038822,0.058544,0.063697,1.182293,7.564000,2711.019051

2.297570,3.397469,10.495634,16.047646,-0.325695,0.406102,0.986976,7.564000,2711.019051

4.721329,-4.422269,23.579626,16.035881,0.120097,0.151363,0.807647,7.564000,2711.019051

4.484222,-5.672470,7.875483,16.027058,-0.014466,0.629397,0.405022,7.564000,2711.019051

-7.009476,5.045243,-0.195733,16.027058,0.409742,0.787942,-0.109517,7.552000,2711.019051

2.561022,-4.925224,10.562695,16.041763,-0.672895,0.121786,0.244611,7.528000,2711.019051

-6.523287,-3.143329,13.714540,16.074116,0.453442,0.124451,-0.212372,7.536000,2711.019051

-6.690939,2.690938,8.337722,16.038822,-0.092540,-0.210226,-0.998436,7.536000,2711.019051

5.106927,2.379586,10.064531,16.038822,0.133687,0.207321,-0.331214,7.528000,2711.019051

-0.363297,2.346056,11.999706,16.044704,0.277576,0.354941,0.026112,7.524000,2711.019051

0.470170,1.857471,9.734018,16.056469,0.266119,-0.011712,-0.236886,7.528000,2711.019051

4.036354,4.992552,8.105405,16.041763,0.137684,0.216647,0.109248,7.524000,2711.019051

0.259408,6.257123,6.778563,16.027058,0.210961,0.273403,0.121506,7.532000,2711.019051

4.850660,4.709940,7.156977,16.041763,0.525919,0.443406,0.427138,7.536000,2711.019051

-3.804940,8.017462,5.799001,16.044704,-0.531937,0.461792,0.899843,7.532000,2711.019051

-2.169142,2.987921,8.876601,16.044704,0.040158,0.401838,0.851080,7.544000,2711.019051

-3.093619,9.399388,9.135263,16.032940,0.239739,0.498031,0.557172,7.560000,2711.019051

-2.966683,8.122843,8.979588,16.044704,0.287702,0.399440,0.490023,7.564000,2711.019051

-4.348610,4.202196,9.219090,16.044704,-0.145299,0.100203,-0.105520,7.564000,2711.019051

-5.823942,0.875513,6.637258,16.050587,-0.210050,0.061299,-0.228626,7.556000,2711.019051

-6.827455,1.402418,6.608517,16.035881,-0.348077,-0.168125,-0.380243,7.560000,2711.019051

-1.163234,-6.788549,15.592236,16.038822,-0.540197,-0.747681,-0.365055,7.552000,2711.019051

2.005377,6.166112,11.707515,16.059410,0.238939,0.051973,0.335741,7.544000,2711.019051

-1.388366,-1.373410,13.367263,16.041763,0.014045,-0.154269,0.467640,7.500000,2711.019051

4.398002,2.346056,8.491003,16.059410,-0.168482,0.022929,0.152415,7.488000,2711.019051

-0.825536,0.882698,11.285991,16.056469,0.064939,0.068760,0.482829,7.488000,2711.019051

-2.923573,5.780514,11.120734,16.032940,0.131289,0.264876,-0.008262,7.496000,2711.019051

-1.239874,2.980736,6.754613,16.047646,0.173390,-0.104174,-0.168406,7.480000,2711.019051

-1.512907,3.019056,10.938713,16.062351,-0.119453,0.056769,-0.361324,7.476000,2711.019051

-1.227899,1.294642,12.349380,16.044704,0.055880,-0.198768,-0.712256,7.488000,2711.019051

-3.424132,9.947847,11.961387,16.047646,0.235209,0.095406,-0.399162,7.496000,2711.019051

-2.439779,7.593544,6.076823,16.041763,0.313282,-0.183313,-0.172935,7.504000,2711.019051

-0.698600,7.207945,7.406059,16.050587,0.009515,-0.162796,0.414881,7.496000,2711.019051

-4.645592,12.582369,7.961703,16.053528,0.492079,0.261146,0.750890,7.524000,2711.019051

5.207518,6.621165,3.952441,16.056469,-0.003808,-0.276842,0.489757,7.520000,2711.019051

-2.015861,5.778119,9.460986,16.056469,-0.256148,-0.116964,0.752222,7.532000,2711.019051

-3.682794,-0.195060,7.168952,16.050587,0.233344,-0.108437,0.370914,7.540000,2711.019051

-2.152377,4.733890,4.472160,16.029999,-0.467719,-0.171856,0.447922,7.544000,2711.019051

-0.212411,3.416629,12.924184,16.044704,0.163264,-0.053546,0.523065,7.556000,2711.019051

2.414926,4.297997,7.798842,16.041763,-0.037116,0.179875,0.464176,7.556000,2711.019051

2.853214,-4.558785,13.791182,16.053528,-0.940956,0.306178,0.680277,7.544000,2711.019051

0.671351,0.705467,14.720448,16.053528,-1.259379,0.259014,0.593144,7.544000,2711.019051

2.778969,2.243070,14.183965,16.050587,-0.589226,0.554521,0.876127,7.516000,2711.019051

-5.165311,-2.896642,15.254539,16.024117,0.207763,1.302215,0.844951,7.504000,2711.019051

-4.116293,4.333922,5.540339,16.050587,0.034829,0.474050,0.047695,7.496000,2711.019051

-2.928363,5.272769,5.401427,16.056469,-0.030188,0.423155,0.000798,7.492000,2711.019051

-4.691098,2.202354,12.588881,16.071175,-0.434145,0.126849,-0.027447,7.488000,2711.019051

1.873651,0.789293,13.637900,16.050587,-0.268139,0.222242,0.071677,7.496000,2711.019051

5.334455,-3.603173,12.603251,16.056469,0.145145,0.356806,0.369049,7.508000,2711.019051

1.876046,9.483213,4.764352,16.044704,0.240805,0.408766,0.211570,7.516000,2711.019051

0.405504,2.978341,5.399033,16.044704,0.143013,0.527875,-0.011992,7.500000,2711.019051

-1.764384,3.189102,11.357841,16.053528,-0.286791,0.548393,-0.230491,7.508000,2711.019051

-1.934430,-1.090798,8.083850,16.062351,-0.074687,0.513486,-0.401294,7.520000,2711.019051

-1.778754,6.925333,10.821357,16.062351,0.310618,0.721060,-0.745830,7.536000,2711.019051

-2.229017,6.072706,11.841636,16.071175,-0.444270,0.397042,-0.807383,7.536000,2711.019051

-0.729735,5.184154,8.177256,16.053528,0.472627,0.672031,-1.200948,7.552000,2711.019051

-4.583322,-0.274096,7.614426,16.059410,-0.240959,0.193731,-1.275024,7.552000,5.261617

-8.894357,2.415511,9.889694,16.065292,-0.162620,0.040249,-1.458617,7.560000,5.261617

-7.143598,-2.944543,10.555510,16.065292,0.214691,-0.218753,-1.395732,7.564000,5.261617

-7.141202,4.343502,10.165122,16.065292,0.635969,-0.387957,-1.350966,7.552000,5.261617

-2.708021,-4.098942,10.967453,16.074116,0.333534,-1.315779,-0.996571,7.548000,5.261617

1.926342,2.918465,10.859677,16.041763,0.572284,-0.889972,-0.587285,7.524000,5.261617

3.531004,-1.725478,11.238091,16.059410,0.538177,-0.889172,-0.035441,7.520000,5.261617

3.305873,3.814203,5.566684,16.056469,0.112103,-0.429791,0.349331,7.496000,5.261617

5.691312,2.805899,8.728109,16.044704,0.457705,-0.314946,0.896911,7.500000,5.261617

-4.209699,2.712493,9.358000,16.068233,0.203500,-0.263252,0.862005,7.504000,5.261617

-0.289052,6.491835,5.322392,16.062351,-0.006206,-0.175852,0.806581,7.492000,5.261617

-4.283944,3.335198,5.432563,16.059410,-0.252417,-0.066336,0.479098,7.468000,5.261617

-1.541647,5.715848,8.637099,16.068233,0.076397,-0.073264,0.066348,7.468000,5.261617

-1.129703,1.620364,8.574828,16.074116,-0.050439,-0.207029,-0.154017,7.480000,5.261617

-0.547714,1.519774,7.159372,16.065292,-0.149563,-0.236606,-0.281386,7.492000,5.261617

-1.314120,-0.209430,8.502978,16.074116,0.132887,-0.152937,0.010657,7.516000,5.261617

1.224601,4.834481,6.127119,16.056469,-0.194595,-0.200367,0.410351,7.516000,5.261617

-3.455267,10.625638,2.120251,16.062351,0.065739,0.237431,0.596608,7.516000,5.261617

1.282081,4.774605,6.998906,16.062351,0.027368,-0.174254,0.192385,7.532000,5.261617

4.321361,2.949600,8.617939,16.068233,-0.043777,0.046644,0.040501,7.536000,5.261617

5.717658,1.150941,3.617138,16.079998,-0.065361,0.158292,-0.352798,7.532000,5.261617

1.073714,3.241793,18.906942,16.082939,-0.799731,-0.019439,-0.535857,7.524000,5.261617

3.756136,4.190221,11.032119,16.085880,0.102244,0.896926,-0.255805,7.528000,5.261617

-5.246742,-0.966257,13.175661,16.071175,0.128091,0.493501,-0.706127,7.520000,5.261617

-0.954867,-0.908776,4.982299,16.068233,-0.254549,0.225973,-1.028813,7.508000,5.261617

-5.531749,-1.497951,9.010722,16.059410,0.647959,0.369863,-1.172436,7.512000,5.261617

-6.195170,1.347332,8.696975,16.065292,0.498207,-0.468961,-1.314994,7.516000,5.261617

-0.631539,8.465330,3.547682,16.079998,0.457172,-0.171323,-0.575027,7.500000,5.261617

6.414608,-2.218852,13.618740,16.056469,-0.358203,-0.456437,-0.084203,7.500000,5.261617

1.037789,1.610784,13.343312,16.077057,0.120630,0.091676,0.036504,7.512000,5.261617

0.434244,4.820111,6.232499,16.065292,0.492878,0.095140,0.172133,7.516000,5.261617

-1.589547,5.770934,7.130631,16.077057,0.487815,0.162288,-0.003199,7.536000,5.261617

-1.103358,3.768697,10.919553,16.071175,-0.031786,0.036518,-0.006130,7.536000,5.261617

-3.519933,9.538300,9.456196,16.068233,0.715374,0.553722,-0.524133,7.544000,5.261617

4.484222,0.583321,2.302272,16.071175,0.354318,-0.172122,-0.511076,7.536000,5.261617

-8.618930,-4.304914,8.823911,16.071175,-0.797333,-0.982967,-0.518004,7.528000,5.261617

-1.625473,11.705792,5.494833,16.071175,0.894171,0.005076,0.168669,7.548000,5.261617

-8.669225,-1.191388,16.277210,16.068233,0.084658,0.155893,0.839622,7.540000,5.261617

-5.009635,0.724627,7.013276,16.062351,0.250664,-0.534777,1.187089,7.556000,5.261617

-2.018256,2.154454,13.398398,16.085880,0.335399,-0.066603,1.524431,7.556000,5.261617

-4.032467,3.234608,11.424902,16.068233,0.585074,0.236365,1.689371,7.560000,5.261617

-3.826495,-1.502741,9.111313,16.071175,-0.380053,-0.265917,1.364020,7.532000,5.261617

-3.052904,2.444251,15.810183,16.071175,0.234676,0.477247,0.960063,7.524000,5.261617

-1.232689,-2.690671,5.066125,16.071175,0.240272,-0.554762,0.194516,7.520000,5.261617

-0.758475,3.579490,10.332773,16.079998,-0.254016,0.123118,0.331744,7.484000,5.261617

4.055514,0.786898,8.888577,16.071175,0.060410,0.154827,0.522532,7.480000,7.801726

-4.755763,0.921019,3.372846,16.077057,-0.423486,0.321899,0.738899,7.456000,7.801726

-2.439779,-0.010644,10.452524,16.074116,-0.029122,0.164420,0.390100,7.476000,7.801726

-2.332003,2.180799,10.423784,16.077057,-0.033652,0.210785,0.095392,7.484000,7.801726

-2.822982,4.118370,9.238249,16.071175,-0.301180,0.059967,-0.326951,7.492000,7.801726

-3.294801,12.781156,10.862072,16.071175,0.218422,0.138040,-0.393033,7.508000,7.801726

5.724843,3.821388,8.464658,16.079998,0.198970,-0.353583,-0.184660,7.504000,7.801726

1.341957,8.149188,5.707990,16.071175,-0.194861,-0.080459,0.171068,7.512000,7.801726

2.424506,4.403378,10.016630,16.082939,-0.537266,0.023994,0.402357,7.504000,7.801726

1.622174,1.503009,12.198493,16.077057,-0.261477,0.072491,0.277120,7.516000,7.801726

-0.921337,6.396034,4.984694,16.068233,-0.125048,0.069559,-0.033842,7.524000,7.801726

-1.771569,-0.985417,14.785114,16.068233,-0.575903,0.099137,-0.368519,7.528000,7.801726

0.860558,-0.096864,9.453801,16.068233,-0.029921,0.299517,-0.561438,7.528000,7.801726

-0.777636,10.699883,1.557421,16.074116,0.252795,0.320834,-0.886522,7.528000,7.801726

0.419874,1.972432,11.257251,16.071175,0.591469,-0.224082,-1.401061,7.540000,7.801726

3.715421,4.357872,12.095508,16.074116,-0.256947,0.001079,-0.963796,7.532000,7.801726

-2.267338,4.951837,14.069004,16.082939,-0.316102,0.008273,-0.819107,7.536000,7.801726

8.903033,4.628509,14.670154,16.068233,-0.148497,0.196129,-0.353064,7.528000,7.801726

-2.918783,0.403695,7.818002,16.077057,0.338063,0.786610,0.136427,7.512000,7.801726

-5.823942,-0.956676,6.467211,16.050587,-0.006739,0.171082,-0.250476,7.496000,7.801726

-3.888766,-3.255895,11.503938,16.082939,-0.797600,-0.366640,-0.486828,7.480000,7.801726

-6.849010,9.890368,6.448051,16.071175,0.299160,0.287792,0.127368,7.476000,7.801726

-4.501891,-3.828305,11.429692,16.082939,0.316214,0.190267,0.270725,7.472000,7.801726

0.975519,7.136095,5.564289,16.062351,-0.113058,-0.382361,0.470305,7.476000,7.801726

1.107245,1.725745,10.246552,16.088821,-0.338751,0.141238,0.696532,7.476000,2644.418042

5.573956,3.907608,9.037067,16.074116,0.085191,0.018932,0.353328,7.496000,2644.418042

2.402951,1.301827,3.823110,16.079998,0.202701,0.510288,0.225959,7.496000,2644.418042

-5.447924,3.739957,7.386899,16.077057,-0.487704,0.265942,-0.056491,7.500000,2644.418042

-0.653095,-0.683644,4.328459,16.077057,0.023638,0.155360,-0.285916,7.516000,2644.418042

-6.506522,4.051310,9.623847,16.068233,-0.587094,0.162821,-0.341073,7.524000,2644.418042

-2.672096,0.758158,9.355605,16.088821,-0.175143,0.153229,-0.219300,7.520000,2644.418042

-6.592743,7.325301,5.399033,16.077057,-0.108794,0.012270,-0.677615,7.536000,2644.418042

-4.003727,-1.579381,7.794052,16.085880,-0.265208,0.172947,-0.535857,7.532000,2644.418042

-1.189579,7.198365,12.064372,16.082939,0.512063,0.035985,-0.380776,7.552000,2644.418042

-4.233649,0.988079,9.247829,16.088821,-0.335820,-0.504934,-0.182528,7.536000,2644.418042

-5.141361,-1.802118,5.207431,16.097647,0.259457,-0.143078,-0.295242,7.536000,2644.418042

-3.007399,-6.747834,13.827106,16.094706,-0.380319,-0.799108,-0.523067,7.524000,2644.418042

-2.638566,0.590506,9.403505,16.103529,0.270382,-0.605390,-0.461248,7.512000,2644.418042

7.406147,-5.614989,9.535232,16.091763,0.005785,-1.044787,-0.265664,7.500000,2644.418042

-0.629144,5.402101,10.050160,16.103529,0.100645,-0.048483,-0.003199,7.496000,2644.418042

-0.993187,4.113580,5.298441,16.097647,0.349521,-0.159598,0.083135,7.488000,2644.418042

-2.775082,5.536222,2.927372,16.088821,-0.075220,-0.177718,-0.038638,7.468000,2644.418042

1.368302,-2.317048,11.175820,16.074116,0.048952,-0.159865,0.134029,7.484000,2644.418042

-2.217042,2.377191,11.139894,16.085880,-0.028322,-0.408208,-0.056225,7.488000,2644.418042

-1.869765,8.534786,9.499307,16.082939,0.267184,-0.011445,-0.077542,7.496000,2644.418042

-3.244506,7.066639,9.628637,16.094706,0.156603,0.048775,0.155346,7.496000,2644.418042

-2.617011,6.673856,3.985971,16.085880,-0.348610,-0.245399,0.082336,7.500000,2644.418042

-2.425409,3.771092,8.483818,16.074116,-0.362200,-0.366373,-0.181196,7.504000,15.104649

0.350419,1.373677,18.787191,16.082939,0.214958,-0.120961,-0.231024,7.520000,15.104649

-2.056576,10.101129,-1.556104,16.091763,0.411341,0.212117,-0.223563,7.532000,15.104649

0.029486,-2.194901,12.576906,16.091763,0.042823,-0.197169,0.224360,7.540000,15.104649

2.757413,-0.892011,6.021738,16.100588,0.202168,-0.309350,-0.119909,7.544000,15.104649

1.935922,1.019215,7.616820,16.106470,0.175521,-0.245399,0.625919,7.544000,15.104649

-3.201395,9.195811,0.189865,16.106470,0.426263,0.199860,0.284314,7.540000,15.104649

1.464103,0.468360,16.231707,16.097647,0.327139,0.019997,0.272856,7.548000,15.104649

3.073556,4.616534,2.905817,16.097647,0.526985,0.154827,0.569695,7.536000,15.104649

4.898561,-8.045935,10.620175,16.103529,0.039892,-0.036493,0.656029,7.500000,15.104649

6.802601,-3.627123,12.167358,16.085880,0.237074,-0.066070,0.837490,7.504000,15.104649

-2.911598,11.775248,5.679250,16.106470,0.694590,0.694148,0.392764,7.508000,15.104649

-0.962052,3.351964,4.249423,16.100588,-0.001143,-0.088186,-0.158546,7.484000,15.104649

2.036512,-2.079941,10.756692,16.088821,-0.365930,0.098337,0.347999,7.464000,15.104649

-1.433871,11.717767,8.074269,16.079998,0.289034,0.554788,0.399692,7.472000,15.104649

1.085690,-0.274096,10.792617,16.094706,0.180318,0.306178,0.193983,7.488000,15.104649

-1.316515,3.208262,9.314890,16.077057,-0.324096,0.306711,0.186522,7.500000,15.104649

-5.596415,4.187826,10.538745,16.097647,-0.319566,0.286993,-0.003199,7.488000,15.104649

1.152750,3.421419,10.627360,16.103529,-0.241759,0.127915,0.384770,7.508000,15.104649

-0.552504,5.488321,4.237448,16.088821,0.565090,0.374126,0.331212,7.532000,15.104649

-0.178881,13.094903,3.032753,16.112352,0.028168,0.104733,0.174532,7.532000,15.104649

-0.411198,0.899464,18.063896,16.109411,-0.467986,0.207321,0.165205,7.520000,15.526961

-0.538134,5.050033,7.564130,16.100588,0.696189,0.285394,0.076740,7.536000,15.526961

-1.247059,5.543406,2.335803,16.103529,0.409209,-0.275776,-0.424210,7.528000,15.526961

2.982545,-8.963226,15.067727,16.115294,-0.333688,-0.965381,-0.049030,7.532000,15.526961

-4.827614,-5.344352,4.738007,16.112352,-0.331290,-0.367705,-0.542519,7.524000,15.526961

-4.521051,-2.185322,3.456671,16.097647,-0.293719,0.044246,-0.527064,7.516000,15.526961

-4.092343,3.256163,8.251501,16.124117,-0.196460,-0.178517,-0.349867,7.520000,15.526961

7.779769,-8.402792,14.502502,16.088821,-0.074154,-0.270980,-0.003199,7.512000,15.526961

-0.887806,2.674173,2.053190,16.106470,-0.533802,0.293921,0.369582,7.492000,15.526961

-0.928522,-1.069242,13.604370,16.112352,-0.174610,0.070092,0.072743,7.460000,15.526961

0.460589,1.716165,9.841794,16.091763,-0.283061,-0.021837,0.002663,7.480000,15.526961

-3.807335,8.592267,5.911567,16.115294,-0.056834,0.422089,-0.037040,7.488000,15.526961

-1.249454,4.324342,8.811935,16.097647,0.165929,0.210518,-0.425275,7.496000,15.526961

-2.743947,2.954390,12.703842,16.118235,-0.080549,0.009073,-0.688007,7.516000,15.526961

-1.769174,1.670660,7.259963,16.115294,0.198171,-0.136416,-0.958733,7.508000,15.526961

-1.843419,4.508758,9.446616,16.106470,0.552299,0.034919,-1.012026,7.516000,15.526961

-5.026400,7.382782,5.782236,16.121176,0.150207,-0.441782,-1.071447,7.524000,15.526961

-1.558412,2.875355,14.519267,16.109411,-0.058433,-0.396483,-0.977919,7.524000,15.526961

-0.849486,-1.593752,5.236171,16.115294,0.253595,-0.466829,-0.942479,7.544000,15.526961

-5.534144,12.570394,4.632626,16.124117,0.157935,-0.507065,-0.341873,7.552000,15.526961

4.359682,5.696688,6.445656,16.112352,0.342327,-0.101509,-0.005597,7.548000,15.526961

1.588644,-1.248869,-3.831373,16.097647,0.963717,0.048509,0.225692,7.564000,15.526961

4.520148,7.442657,1.325104,16.100588,-0.621468,-1.689892,0.005328,7.552000,15.526961

2.872374,-0.465697,15.517990,16.121176,0.380431,0.147633,0.563034,7.556000,15.526961

3.313058,3.931558,19.134470,16.109411,-0.125581,-0.202232,0.079404,7.560000,15.526961

5.533241,1.031190,9.935200,16.127058,-0.295051,0.368264,0.208106,7.540000,15.526961

0.168397,2.420301,7.185717,16.124117,-0.266806,0.220111,0.640841,7.520000,15.526961

-1.790729,-0.918356,8.136540,16.121176,-0.036849,0.469520,0.749558,7.504000,15.526961

-2.250573,-0.120815,2.383703,16.109411,-0.175943,0.327495,0.441261,7.500000,15.526961

-1.838629,-4.709672,13.103810,16.115294,0.037760,-0.159065,0.215034,7.504000,15.526961

-0.873436,0.645592,4.112907,16.112352,-0.285459,0.047177,0.012256,7.492000,15.526961

-5.146151,-0.415402,14.066608,16.118235,-0.549257,-0.155868,0.172133,7.472000,15.526961

-1.072223,3.088511,6.582172,16.106470,0.089454,0.294187,-0.202246,7.484000,15.526961

-0.748895,7.466608,8.517348,16.127058,-0.046175,0.109795,-0.058890,7.492000,15.526961

-2.569110,5.366175,9.290939,16.103529,0.175521,0.465523,-0.209974,7.516000,15.526961

-0.056735,7.133700,2.733376,16.124117,0.110238,0.008806,-0.162543,7.532000,15.526961

-2.140402,5.184154,13.465459,16.112352,-0.471450,0.191333,0.034639,7.528000,15.526961

-3.529513,-0.329181,7.530600,16.135881,-0.577235,-0.244600,-0.278188,7.536000,15.526961

-1.112938,1.150941,19.189556,16.109411,0.410275,-0.265384,-1.162577,7.540000,15.526961

0.130077,1.505404,9.219090,16.129999,1.044189,0.200126,-0.603006,7.564000,15.526961

-4.295919,6.927728,7.061176,16.127058,0.583209,0.018665,-0.570764,7.552000,15.526961

-3.270851,2.132899,10.186677,16.115294,0.616783,-0.618180,-0.562237,7.532000,15.526961

1.023419,0.288734,8.910131,16.124117,0.519791,-0.623776,-0.389569,7.532000,15.526961

2.987335,-4.419875,11.808105,16.115294,-0.021661,-0.994692,0.064483,7.504000,15.526961

-0.859066,2.312525,11.034513,16.118235,-0.026990,-0.368238,0.324816,7.480000,7.980597

2.038908,1.038375,8.744875,16.132940,0.333800,-0.220885,0.478299,7.456000,7.980597

1.909576,4.032149,8.862231,16.129999,0.019907,-0.191574,0.810045,7.432000,7.980597

-0.308212,8.961100,11.257251,16.141764,0.199237,-0.068735,1.164440,7.444000,7.980597

-3.819310,4.575819,8.280241,16.118235,0.055347,0.241161,1.027745,7.460000,7.980597

-2.978658,4.642879,9.990285,16.124117,-0.120518,0.028524,0.579022,7.480000,7.980597

0.156422,6.645116,6.895920,16.115294,0.123295,0.186803,0.449254,7.484000,7.980597

-1.723668,6.362504,8.462263,16.115294,0.008716,0.117789,0.206774,7.480000,7.980597

-3.005004,10.757364,11.951806,16.138823,-0.081615,-0.110036,-0.288047,7.496000,7.980597

4.232745,1.378468,8.081454,16.132940,0.242137,0.104999,-0.312029,7.496000,7.980597

-1.987120,9.940662,6.009762,16.121176,-0.223639,0.043446,-0.656565,7.488000,7.980597

4.031564,3.160362,6.165439,16.121176,-0.022993,0.038117,-0.632850,7.504000,7.980597

-1.534462,5.632022,5.825346,16.121176,0.082259,-0.074597,-0.462580,7.504000,7.980597

-3.670819,-0.590238,9.164003,16.129999,-0.345146,-0.380762,-0.657364,7.504000,7.980597

0.412689,0.183353,8.170071,16.127058,-0.262010,-0.237139,-0.282718,7.512000,7.980597

-0.487838,4.635695,6.378595,16.118235,-0.068292,-0.269647,0.082869,7.512000,7.980597

0.829423,-0.932726,10.035790,16.121176,-0.208984,-0.398082,0.003196,7.516000,7.980597

3.044816,4.087235,6.139093,16.138823,0.002854,-0.066336,0.215567,7.520000,7.980597

1.789825,-0.561498,7.765312,16.115294,-0.146632,-0.082857,0.227558,7.508000,7.980597

2.369420,1.768856,8.613149,16.127058,-0.423486,0.088478,0.168137,7.504000,7.980597

-0.609984,4.168665,3.411166,16.124117,-0.226571,0.248089,0.273123,7.488000,7.980597

-1.273405,-1.078822,13.400793,16.115294,-0.045110,0.229171,0.354127,7.472000,7.980597

-0.368087,0.068392,8.890971,16.129999,0.173923,0.163088,0.070611,7.480000,7.980597

0.470170,1.292247,10.589040,16.129999,-0.119986,0.154295,0.301368,7.460000,7.980597

-3.028954,2.068233,8.735295,16.115294,-0.292387,0.161223,0.141224,7.436000,7.980597

-1.644633,4.082445,8.859837,16.127058,-0.357404,-0.026101,-0.025315,7.444000,2762.251688

-0.641119,0.142637,10.598620,16.150587,0.082259,0.115924,0.133496,7.464000,2762.251688

-0.138165,6.077496,6.285190,16.112352,-0.214846,0.166019,0.323751,7.452000,2762.251688

1.133590,6.479859,9.860954,16.138823,-0.090142,0.350411,0.501481,7.452000,2762.251688

-1.685348,6.305023,8.639494,16.135881,0.090786,0.497765,0.615261,7.468000,2762.251688

-1.888925,5.679923,12.330219,16.129999,0.072134,0.502295,0.597141,7.496000,2762.251688

-3.098409,9.873602,6.402545,16.138823,-0.075486,0.407700,-0.129236,7.500000,2762.251688

-5.677845,4.709940,7.966493,16.129999,-0.127447,0.176677,-0.536390,7.524000,2762.251688

-0.866251,4.355477,3.878195,16.141764,0.535779,0.043446,-0.708791,7.540000,2762.251688

-3.103199,1.309012,11.439272,16.132940,-0.196993,-0.302955,-0.327750,7.544000,2762.251688

-5.035980,-2.597265,15.561101,16.129999,-0.115189,0.135909,-0.467377,7.544000,2762.251688

-0.075895,8.254569,6.117538,16.132940,0.679402,-0.093249,-0.207309,7.556000,2762.251688

-5.704191,4.003409,8.941267,16.150587,0.146210,0.258215,-0.028513,7.540000,2762.251688

0.067806,2.781949,11.616504,16.129999,0.355916,-0.337329,-0.506546,7.532000,2762.251688

1.382672,-4.415084,7.156977,16.135881,-0.255082,-0.364241,-0.162543,7.516000,2762.251688

2.858004,-0.824950,9.492122,16.112352,-0.147964,-0.434321,-0.460981,7.496000,2762.251688

-4.152218,-2.645165,10.236973,16.124117,0.104109,-0.248064,-0.804452,7.496000,2762.251688

-4.858749,6.930123,7.865902,16.129999,0.246933,-0.424995,-1.054127,7.484000,2762.251688

1.667679,0.964129,5.583449,16.118235,0.107840,-0.436719,-0.525732,7.472000,2762.251688

-0.839906,4.882381,10.577065,16.144705,-0.033652,-0.579810,-0.113248,7.476000,2762.251688

0.144447,2.640643,11.333891,16.127058,-0.061897,-0.483350,0.202244,7.484000,2762.251688

-2.569110,9.339513,14.124089,16.109411,0.078795,-0.237672,0.569163,7.488000,2762.251688

1.138380,9.377833,13.530125,16.109411,0.122762,-0.172388,1.055990,7.512000,15.168040

-3.495983,6.530155,10.042975,16.127058,0.055347,0.027192,1.224394,7.504000,15.168040

-0.744105,3.624996,13.134946,16.127058,-0.064295,-0.247797,0.888918,7.512000,15.168040

-3.148705,8.110868,11.125525,16.124117,0.213359,-0.046085,0.652565,7.536000,15.168040

-2.111661,6.640326,4.211103,16.129999,0.090786,-0.093782,0.118308,7.540000,15.168040

0.204322,6.185272,9.187954,16.124117,-0.014466,-0.201433,0.257668,7.540000,15.168040

-1.666188,3.814203,7.851532,16.124117,0.184848,0.088478,0.285380,7.560000,15.168040

5.509291,6.870247,5.966652,16.127058,0.213892,-0.084989,0.385037,7.560000,15.168040

0.216298,5.562567,5.343947,16.127058,0.518192,0.590227,0.960862,7.556000,15.168040

2.800524,1.411998,8.519743,16.124117,0.746018,0.290457,0.760483,7.560000,15.168040

5.612277,0.636012,11.115945,16.144705,0.365776,0.393311,0.889184,7.560000,15.168040

2.070043,-5.042580,13.810342,16.138823,0.040158,0.289924,0.942743,7.532000,15.168040

-1.132098,0.207303,14.318086,16.138823,-0.088010,0.372794,1.237184,7.516000,15.168040

2.098783,3.337594,8.143725,16.135881,0.740955,0.995250,1.247310,7.500000,15.168040

-3.079249,3.004686,5.753495,16.121176,-0.214580,0.527875,0.622721,7.472000,15.168040

-1.759594,0.851563,11.072834,16.112352,0.114235,0.333357,0.155613,7.476000,15.168040

-4.475546,8.889249,9.082573,16.144705,-0.070157,0.568910,-0.254473,7.492000,15.168040

2.436481,1.938902,8.126960,16.121176,-0.074420,0.411697,-0.232090,7.500000,15.168040

-1.888925,4.793766,13.237932,16.132940,-0.403502,0.459394,-0.158813,7.508000,15.168040

-1.170419,4.611744,6.958190,16.106470,-0.091741,0.551324,-0.346936,7.508000,15.168040

2.376605,3.332803,4.682922,16.132940,-0.074687,0.149765,-0.331747,7.516000,15.168040

-1.412316,1.546119,3.001618,16.121176,-0.010736,0.465256,-0.586752,7.532000,15.168040

-3.050509,7.581568,8.364067,16.132940,-0.393376,0.204922,-0.695735,7.536000,16.528813

0.084571,1.035980,9.834609,16.147646,-0.328892,0.249955,-0.148154,7.544000,16.528813

-5.823942,2.777159,14.595908,16.129999,0.198437,0.082883,-0.343738,7.552000,16.528813

-5.174891,-2.707436,16.138300,16.115294,0.003120,0.004809,-0.605937,7.544000,16.528813

-5.292247,-3.667839,6.828859,16.115294,-0.146099,-0.551032,-0.917165,7.532000,16.528813

-1.922455,4.626114,6.289979,16.115294,0.398018,0.022662,-0.641643,7.524000,16.528813

2.002982,4.338712,6.084008,16.121176,0.515527,-0.532646,-0.657631,7.516000,16.528813

7.281605,3.399864,8.028764,16.127058,0.282639,-0.369571,-0.126038,7.504000,16.528813

1.483263,-2.214062,7.137816,16.127058,0.173923,0.025060,-0.040237,7.508000,16.528813

-0.030389,-0.295651,10.924343,16.124117,0.009782,-0.557160,-0.335211,7.488000,16.528813

0.331258,9.341908,9.365185,16.124117,-0.068025,0.081017,-0.236620,7.480000,16.528813

-2.681676,4.621324,7.566525,16.115294,0.226416,0.261679,-0.154283,7.488000,16.528813

-4.233649,5.375755,13.343312,16.112352,0.090786,-0.381029,-0.471906,7.496000,16.528813

0.678536,4.527918,12.210468,16.115294,0.157402,-0.046618,-0.322954,7.504000,16.528813

-5.732931,12.306942,3.200404,16.106470,0.345524,0.162821,-0.690139,7.512000,16.528813

9.992766,-3.064294,12.598461,16.135881,-0.020329,-0.446845,-0.556108,7.504000,16.528813

-4.942575,2.985526,6.716293,16.127058,-0.030721,0.074089,-0.726378,7.512000,16.528813

-7.280114,9.895157,2.405258,16.109411,0.342327,-0.426860,-0.745297,7.528000,16.528813

6.970253,-2.245197,13.154106,16.121176,0.100912,-0.394618,-0.398629,7.536000,16.528813

-7.783068,3.761512,1.569396,16.118235,0.177920,-0.242202,-0.580090,7.552000,16.528813

6.493644,-2.999628,13.609159,16.132940,-0.457327,-1.148707,-0.523067,7.540000,16.528813

0.965939,5.114698,12.457155,16.109411,-0.153560,-0.628572,-0.045300,7.556000,16.074010

-1.148864,0.176168,8.764035,16.129999,-0.507156,-0.360511,0.160676,7.536000,16.074010

1.107245,1.788016,7.113866,16.106470,0.268250,-0.163062,0.447389,7.544000,16.074010

-3.505563,5.993670,13.048725,16.121176,-0.310773,-0.309084,0.123637,7.548000,16.074010

5.363194,-4.455800,12.627202,16.121176,0.027102,-0.036493,0.389567,7.540000,16.074010

-2.880463,3.294483,6.380991,16.129999,0.266652,0.062365,0.402091,7.528000,16.074010

1.016234,3.287298,10.737532,16.127058,0.272247,0.264077,0.816706,7.504000,16.074010

1.581459,0.573741,6.194179,16.135881,0.330869,0.382386,0.879858,7.496000,16.074010

-2.291288,3.471714,7.250382,16.127058,-0.185002,0.087412,0.656296,7.492000,16.074010

-0.607589,-0.683644,6.670788,16.129999,-0.063495,0.128181,0.352529,7.496000,16.074010

-4.909044,4.599769,17.307070,16.132940,-0.394975,0.241694,0.354394,7.496000,16.074010

-0.902177,-2.132631,17.548967,16.124117,-0.311306,0.045844,0.124170,7.508000,16.074010

-5.486244,-0.223800,7.334208,16.135881,-0.248420,0.095140,-0.229426,7.504000,16.074010

-1.716483,10.230460,5.427773,16.132940,0.158734,0.489771,-0.243814,7.520000,16.074010

-3.165470,0.255203,9.549602,16.135881,0.050018,0.212650,-0.210240,7.536000,16.074010

-7.658526,12.103365,12.294294,16.127058,-0.195394,0.443673,0.087665,7.536000,16.074010

-3.694769,3.795042,17.043617,16.135881,-0.318500,0.307244,0.421276,7.544000,16.074010

-4.401300,-3.713344,12.799644,16.124117,0.040691,-0.059408,0.301634,7.552000,16.074010

-12.345580,1.835916,7.645561,16.112352,-0.750169,-0.224082,0.209438,7.540000,16.074010

0.486935,2.619088,10.893208,16.127058,0.371904,0.120987,0.335208,7.544000,16.074010

1.773060,-6.558627,15.882033,16.121176,-0.264941,-0.482018,0.397294,7.536000,16.585216

-4.303104,1.311407,7.810817,16.141764,-0.342215,0.127382,0.694133,7.528000,16.585216

0.266593,5.026083,4.721242,16.138823,-0.713131,-0.143344,0.457515,7.508000,16.585216

-4.748578,-0.415402,15.865269,16.132940,0.200036,0.164953,0.465242,7.520000,16.585216

-0.370482,-1.246474,2.778881,16.129999,0.239206,-0.288833,0.163607,7.516000,16.585216

-3.395392,-0.128000,9.367580,16.127058,-0.339018,-0.339194,0.281650,7.500000,16.585216

-0.389642,0.909044,12.488291,16.124117,0.175521,0.216647,0.331744,7.504000,16.585216

-1.290170,6.261912,6.644443,16.127058,0.367374,0.180941,0.147619,7.516000,16.585216

-0.708180,6.937308,1.035307,16.124117,-0.201790,-0.100177,-0.110850,7.492000,16.585216

3.042421,2.609508,8.340117,16.127058,0.444382,0.099936,-0.196384,7.516000,16.585216

0.252223,-1.109958,12.232023,16.109411,-0.555918,-0.330401,-1.201481,7.520000,16.585216

0.793497,6.005645,8.919712,16.141764,0.074266,0.049575,-1.059456,7.532000,16.585216

-2.082921,7.691739,0.747905,16.115294,-0.122917,0.128714,-0.657098,7.536000,16.585216

-1.426686,1.292247,9.022697,16.115294,-0.317701,-0.435120,-0.941413,7.536000,16.585216

5.145248,4.192616,6.402545,16.135881,1.145445,0.606748,-0.857211,7.552000,16.585216

9.209596,1.112620,3.791974,16.124117,-0.369394,-0.385292,-0.919830,7.536000,16.585216

5.559586,6.563685,13.755256,16.109411,0.060143,-0.061274,-0.715453,7.544000,16.585216

0.108522,0.231253,12.042817,16.127058,-0.169015,0.332025,-0.540654,7.540000,16.585216

1.878441,1.742511,14.442627,16.124117,0.356982,0.374126,-0.513741,7.548000,16.585216

-3.057694,7.195970,6.340275,16.118235,1.092152,0.731452,-0.618461,7.532000,16.585216

7.068449,-8.572839,5.748705,16.118235,-0.389646,-1.096747,-0.796724,7.524000,16.585216

-1.613497,10.517862,4.644601,16.121176,0.742554,0.103933,-0.140694,7.524000,16.267385

-1.268615,0.245623,6.412126,16.132940,-0.335554,-0.376765,-0.078341,7.488000,16.267385

-1.448241,1.311407,11.326706,16.141764,-0.170080,-0.292829,-0.053560,7.476000,16.267385

2.105968,-0.216615,10.395043,16.129999,0.422266,0.063431,0.280051,7.500000,16.267385

-3.723510,10.896276,6.816884,16.103529,0.271181,0.339220,0.531325,7.504000,16.267385

-2.940338,1.253927,13.019985,16.109411,-0.336087,-0.038358,0.664290,7.472000,16.267385

-5.677845,5.878709,7.015671,16.127058,0.492079,0.138307,0.486293,7.500000,16.267385

-0.892597,2.365216,6.900710,16.121176,-0.140770,-0.397549,0.846017,7.508000,16.267385

-4.446805,8.352765,9.959150,16.115294,-0.149296,-0.071133,1.159111,7.524000,16.267385

-3.105594,9.191022,-0.602886,16.129999,0.078529,0.134576,1.358691,7.524000,16.267385

-7.124437,2.156849,14.327665,16.121176,-1.184237,-0.157200,0.912633,7.520000,16.267385

-2.063761,2.489757,14.231865,16.115294,-0.366730,0.001612,0.867334,7.524000,16.267385

-2.863698,-1.526691,9.233459,16.124117,-0.218577,-0.311748,0.307496,7.528000,16.267385

-3.107990,-1.620097,6.067243,16.109411,0.047619,0.044246,0.517735,7.536000,16.267385

0.352814,4.211776,3.681803,16.127058,-0.095737,-0.291231,0.571294,7.540000,16.267385

-1.742828,-2.089521,10.062136,16.132940,-0.302246,0.155627,0.660026,7.536000,16.267385

1.040184,-5.806591,15.532360,16.127058,-0.229502,-0.326137,0.567297,7.532000,16.267385

2.884349,-3.806750,12.639177,16.115294,0.261589,-0.006649,0.141490,7.532000,16.267385

1.665284,2.887330,6.934240,16.132940,0.025503,0.330426,-0.472972,7.512000,16.267385

1.215021,2.844219,5.502018,16.147646,-0.092007,0.190533,-0.587818,7.488000,16.267385

0.407899,-1.066847,15.158737,16.144705,-0.234298,0.123118,-0.831897,7.488000,16.267385

-0.923732,-0.875246,14.421071,16.138823,0.451044,0.337088,-0.927024,7.520000,16.267385

-2.645751,3.586675,2.589674,16.121176,-0.020595,-0.321607,-0.943279,7.504000,16.267385

