ax,ay,az,gx,gy,gz,temp,volt,vel

-0.186066,0.944969,9.745994,15.674116,0.003653,-0.185179,0.155613,0.832000,2776.612565

3.131036,0.501890,9.714858,15.756470,-0.134375,-0.365041,0.250473,0.964000,2776.612565

-0.854276,0.451595,10.646521,15.774117,0.028434,0.123118,0.233953,0.960000,2757.862783

4.817130,0.887489,5.827741,15.756470,0.045754,-0.489212,-0.274191,0.956000,2775.502520

-7.354359,3.395074,15.628161,15.765293,0.155270,-0.065537,-0.239018,0.952000,513.681564

4.041144,-0.293256,5.909172,15.765293,-0.066693,0.022396,-0.219300,0.948000,2776.057437

1.183886,1.914952,8.447892,15.779999,-0.034984,0.034653,-0.215303,0.944000,2775.502520

-1.045878,2.439461,9.535232,15.782940,0.008183,-0.032762,-0.122308,1.664000,2775.502520

1.768270,1.879027,10.246552,15.788822,0.029500,-0.036759,-0.112981,4.156000,2777.167906

0.348024,3.481295,9.607082,15.782940,-0.002742,0.113526,0.013322,4.700000,2775.502520

-0.267496,2.413116,9.470566,15.785881,-0.043777,0.051174,0.076740,5.340000,2775.502520

-0.277076,2.844219,9.379556,-4.134708,0.053482,-0.060741,-0.068749,6.320000,2776.612565

-0.997977,1.158126,9.760364,15.800587,-0.181538,0.050907,0.312026,6.800000,2775.502520

-1.019533,3.399864,9.698093,15.782940,-0.000077,-0.013843,0.324284,7.092000,2777.167906

-1.041088,0.556976,10.462104,15.782940,-0.100001,-0.054878,0.371714,7.184000,2774.948028

-0.322582,1.620364,8.100615,15.791763,-0.157024,0.013602,0.258201,7.188000,2776.057437

1.152750,3.886053,8.198811,15.794704,-0.074953,-0.063672,-0.117511,7.248000,2243.994764

2.431691,2.607113,6.864784,15.756470,0.044155,0.103134,-0.340807,7.240000,2261.169211

1.981427,0.382139,9.451406,15.774117,-0.083480,0.127648,-0.565168,7.248000,2319.331843

1.974242,0.032467,12.979270,15.791763,0.056413,0.190267,-0.596877,7.244000,2135.954475

-2.015861,-5.708395,15.575471,15.803528,-0.268938,0.425287,-0.684543,7.220000,2770.518653

-4.032467,-1.943424,8.134145,15.782940,0.142214,-0.007715,-0.753024,7.212000,2054.422205

-2.303263,-0.199850,9.214299,15.771175,-0.013134,-0.034094,-0.544917,7.176000,2557.715874

0.609081,-0.544733,7.293493,15.771175,0.095316,-0.135084,-0.104988,7.140000,2774.948028

0.288148,3.270533,7.509045,15.809410,0.106241,-0.029032,0.235552,7.200000,2773.839254

0.094152,4.626114,6.881549,15.779999,-0.044843,-0.042888,0.506277,7.224000,2773.285397

0.175582,1.857471,8.747270,15.806469,-0.076019,-0.150006,0.654164,7.272000,2332.578437

0.542020,0.398905,9.566367,15.800587,0.174722,-0.019173,0.718648,7.280000,2361.135771

-1.544042,-2.554155,9.298124,15.788822,0.106508,0.066095,0.666155,7.264000,2777.167906

-2.384694,-5.559904,5.777445,15.812351,0.003920,0.039982,0.486826,7.264000,2246.172690

1.682050,5.454791,13.894167,15.812351,-0.292653,-0.139081,0.193983,7.276000,2728.598826

0.745597,0.003726,9.750783,15.794704,-0.117854,0.131379,0.071411,7.256000,2474.312059

3.715421,3.684871,11.113549,15.812351,0.058811,-0.085788,-0.086335,7.256000,2169.323417

1.212626,3.287298,10.761481,15.791763,0.177120,0.049841,0.136694,7.244000,2164.926672

-2.116452,3.593861,9.149633,15.806469,0.213625,0.298984,0.168137,7.272000,2316.623155

-2.945128,2.489757,6.057663,15.800587,0.067871,-0.059408,0.233953,7.272000,2404.890913

-1.893715,0.830008,6.222919,15.800587,-0.114123,-0.097779,0.382106,7.252000,2282.728748

-1.793124,-2.733781,12.936159,15.782940,-0.153293,0.026659,0.495086,7.268000,2338.470850

-0.586034,0.276759,14.253420,15.797646,-0.027790,0.006141,0.451120,7.268000,2393.697658

2.062858,1.479059,9.803473,15.821175,0.285570,-0.124425,0.419411,7.288000,2541.797459

-0.997977,2.566397,7.374924,15.821175,0.130223,0.049841,0.302700,7.304000,2579.093617

-0.253126,3.498060,9.714858,15.815292,0.152606,-0.067669,0.312026,7.304000,2530.679634

-0.233966,0.992869,9.657377,15.803528,0.096648,0.074356,0.145754,7.316000,2776.612565

-0.425568,1.778436,9.312495,15.812351,0.125693,0.102867,-0.069282,7.336000,2776.612565

0.125287,9.408968,10.464499,15.806469,0.310351,0.001345,-0.567833,7.352000,2776.612565

1.974242,-5.351537,8.088639,15.824116,0.171524,0.088745,-0.309897,7.364000,2776.057437

0.400714,-0.228591,7.372529,15.821175,-0.093339,-0.121761,-0.560105,7.312000,2764.451438

0.556390,-1.861994,10.165122,15.821175,-0.298782,0.045844,-0.382908,7.292000,2167.968649

-4.168983,1.088670,7.964098,15.800587,-0.054169,-0.006382,-0.455119,7.304000,2557.715874

0.764757,3.692056,8.637099,15.841763,0.122762,-0.124159,0.179861,7.352000,2776.612565

-6.025123,-2.781681,7.303073,15.809410,0.203766,-0.403145,1.356293,7.344000,2775.502520

-3.369047,1.052745,10.253737,15.835880,0.051616,-0.539574,1.633147,7.344000,2776.612565

2.692748,2.760394,13.451089,15.847647,0.091852,-0.168924,1.824467,7.364000,2775.502520

2.455641,3.385494,11.058464,15.835880,0.274645,-0.191840,1.705625,7.372000,2775.502520

-1.156049,2.063443,6.646838,15.835880,0.024171,-0.056477,1.420510,7.380000,2551.605859

-1.493746,-0.163925,9.657377,15.832939,-0.114390,0.100469,0.828697,7.368000,2771.071451

2.182609,0.269574,12.627202,15.821175,-0.075753,0.100203,0.118308,7.376000,2776.057437

3.176542,0.226463,10.442944,15.829998,0.005252,0.305112,-0.189989,7.360000,2455.932009

2.146683,3.402259,10.953083,15.832939,0.327405,0.217446,-0.695202,7.372000,2774.948028

-0.229176,1.744905,8.138935,15.832939,0.141947,0.236099,-0.955003,7.376000,2532.525966

1.085690,1.376073,7.303073,15.838821,-0.030188,0.046910,-1.046133,7.380000,2775.502520

1.581459,-0.041779,6.613307,15.841763,-0.020595,0.077820,-0.883591,7.356000,2776.612565

0.379159,0.164193,7.245593,15.844706,0.128357,-0.063139,-0.802853,7.348000,2777.167906

0.872533,-0.252541,14.126484,15.838821,0.144878,-0.168658,-0.317358,7.356000,2776.612565

1.349142,-4.280963,12.912210,15.838821,0.508067,-0.136150,0.415414,7.356000,2740.445945

-1.407526,1.388048,5.911567,15.862352,0.386560,-0.323473,1.056522,7.372000,2770.518653

-1.618287,7.021134,2.821991,15.847647,0.061742,-0.218486,1.460213,7.384000,2776.612565

0.858163,-0.331576,15.702407,15.835880,-0.353140,-0.311482,1.021349,7.388000,2758.410708

2.493961,-2.127841,14.169595,15.847647,-0.110926,-0.252061,0.872930,7.400000,2777.167906

0.276173,-0.003459,8.859837,15.844706,0.242403,0.275002,0.535588,7.380000,2777.167906

1.873651,1.098250,10.514794,15.850588,-0.013401,0.228904,0.177463,7.400000,2774.948028

-2.135612,0.791688,10.699211,15.844706,-0.064561,0.261146,0.148152,7.376000,2777.167906

0.941988,-1.251264,7.916198,15.850588,0.267451,0.055970,0.038369,7.384000,2775.502520

-0.217201,0.545001,9.877720,15.841763,-0.163952,0.428751,0.648302,7.396000,2774.948028

-2.267338,0.075577,11.776970,15.865294,0.142746,0.332292,0.398627,7.404000,2746.408068

1.145565,0.887489,7.691066,15.856470,-0.089342,0.267541,-0.250210,7.388000,2776.612565

4.515357,1.680240,12.311059,15.874117,0.372970,0.234233,-0.641110,7.384000,2772.731539

3.150197,1.651500,10.229787,15.853529,0.103044,0.241161,-0.692271,7.372000,2776.612565

3.188517,2.827454,7.070756,15.859411,0.252529,0.425287,-0.572629,7.380000,2776.612565

-0.557294,0.571346,7.398874,15.841763,0.210961,0.337354,-0.253674,7.408000,2774.948028

-2.250573,6.611586,11.139894,15.868235,-0.313437,0.452733,-0.054626,7.404000,2774.948028

-2.755922,1.582044,8.718530,15.868235,-0.024858,0.458861,-0.751159,7.388000,2776.612565

1.318007,-0.678854,11.635664,15.856470,-0.096004,0.081550,-1.190289,7.384000,2777.167906

2.345470,2.209539,12.344589,15.850588,-0.130378,0.371994,-1.370151,7.376000,2776.612565

0.307308,0.853958,10.380673,15.859411,-0.137039,0.295520,-1.252642,7.380000,2776.057437

-3.994147,1.328172,9.587922,15.853529,-0.038182,0.187602,-1.141260,7.384000,2100.414387

-1.556017,-0.913566,8.833491,15.847647,0.108106,-0.080725,-0.690406,7.392000,2776.612565

-4.724628,-5.430573,7.729386,15.865294,-0.108528,-0.210226,-0.279520,7.392000,2760.604313

-4.434831,-2.556550,10.775852,15.859411,-0.168482,-0.273644,-0.521202,7.384000,2036.942862

1.696420,1.256322,10.184282,15.865294,0.067071,-0.328802,-0.579557,7.392000,2776.612565

2.007772,1.179681,11.367421,15.877058,-0.158623,-0.169457,-0.161478,7.384000,2090.296429

-4.753368,-0.817765,9.925620,15.879999,-0.170880,-0.198768,0.501748,7.384000,2776.612565

-2.511630,0.585716,9.482541,15.862352,-0.149829,-0.236073,0.990440,7.380000,2776.057437

-0.188461,1.012030,9.657377,15.868235,0.093451,-0.270980,0.452186,7.396000,2743.694930

2.098783,2.173614,8.179650,15.882940,0.148342,-0.145209,-0.091931,7.400000,2260.800961

3.145406,1.759276,10.213022,15.877058,-0.041646,0.081817,-0.063419,7.392000,2761.153297

-0.598009,1.340147,9.724438,15.868235,0.107307,0.094873,0.024513,7.404000,2742.610946

-3.445687,-0.647719,13.173266,15.888823,0.044955,-0.034361,-0.150020,7.396000,2165.264199

0.556390,3.771092,5.403822,15.897646,-0.011535,0.037051,-0.291778,7.396000,2776.057437

-1.151259,-0.156740,9.231064,15.877058,-0.050972,-0.101243,-0.568099,7.376000,2776.612565

-1.230294,-0.784235,10.548325,15.888823,-0.393909,0.048509,-0.760485,7.368000,2760.604313

0.103732,4.757840,10.866862,15.871176,-0.219909,-0.008780,-0.586485,7.364000,2775.502520

2.079623,2.604717,9.451406,15.894705,-0.372592,-0.167592,0.105784,7.360000,2776.057437

-4.695888,1.680240,8.232341,15.877058,0.369240,-0.106039,0.735435,7.380000,2775.502520

-4.691098,-0.630954,12.421230,15.894705,-0.175143,-0.369304,1.271291,7.384000,2775.502520

-0.135770,-1.284794,8.744875,15.885881,-0.072289,-0.647757,1.337107,7.396000,2070.967788

-1.479376,-4.355209,11.987732,15.894705,-0.243091,-0.142278,1.127135,7.392000,2777.167906

-1.055458,-2.539784,8.213181,15.879999,0.052416,-0.111901,0.506277,7.396000,2154.513564

3.976478,0.336634,7.410849,15.877058,0.028701,-0.131620,0.202510,7.400000,2579.572680

-0.471073,-2.865507,13.867822,15.888823,-0.432546,0.299517,-0.181995,7.372000,2324.378850

-1.718878,-4.376764,12.117063,15.888823,-0.041379,0.267541,-0.694136,7.388000,2776.057437

3.705841,8.142003,9.094548,15.894705,0.099580,0.158824,-0.831364,7.396000,2776.612565

3.212467,1.270692,11.300361,15.906469,0.058811,0.067961,-0.448191,7.400000,2684.810419

1.279686,4.956627,13.522939,15.897646,0.601328,0.193997,-0.391168,7.404000,2629.893805

-2.499655,5.282350,7.034831,15.879999,0.125959,0.116190,-0.295242,7.420000,2775.502520

-1.268615,-5.540744,12.093113,35.771175,0.053482,-0.060741,-0.068749,7.420000,2765.001905

3.073556,-0.046569,6.088798,15.897646,0.443050,-0.289632,-0.036773,7.392000,2776.057437

-3.024164,4.702755,10.392649,15.874117,0.132621,-0.049816,0.415947,7.388000,2777.167906

-3.158285,3.342384,7.192902,15.871176,-0.125048,0.506292,0.813775,7.396000,2775.502520

1.040184,1.395233,8.277846,15.882940,0.308753,0.012803,0.579022,7.372000,2776.057437

-0.890202,-0.408217,0.817360,36.527058,0.121962,0.007740,-0.000268,7.396000,2777.167906

-0.207621,-2.772101,15.079701,15.903528,-0.558050,0.245958,-0.000268,7.376000,2776.057437

1.246156,-3.569643,7.624006,15.912352,-0.466120,-0.340793,0.029310,7.360000,2777.167906

-0.492628,3.419024,9.813054,36.527058,0.121962,0.007740,-0.000268,7.360000,2777.167906

0.666561,4.226146,6.771379,15.891764,-0.045643,0.080751,-0.308032,7.392000,2777.167906

-2.540370,4.290812,0.201840,35.771175,-0.014999,-0.266183,-0.274191,7.400000,2777.167906

-0.890202,-0.408217,0.817360,36.527058,0.121962,0.007740,-0.000268,7.440000,2776.612565

-0.969237,-0.396242,7.576105,15.906469,0.394287,0.061033,-1.364556,7.436000,2777.167906

1.729950,5.454791,12.727793,15.903528,0.107840,-0.049283,0.087398,7.456000,2776.612565

-1.359625,2.245465,9.681328,15.900587,0.285304,0.074889,0.741031,7.448000,2774.393535

-2.846932,-1.203363,10.502819,15.921175,0.196039,-0.175320,0.913166,7.444000,2687.408505

-0.432753,1.162916,9.743598,15.903528,0.041757,-0.085522,0.688804,7.432000,2776.612565

1.248551,1.404813,10.426179,15.909410,0.014312,0.063964,0.492688,7.436000,2507.827199

1.188675,2.472991,10.953083,15.894705,0.074266,0.186803,0.015720,7.444000,2776.612565

0.719252,4.678805,10.536350,15.909410,0.164330,0.162821,-0.358926,7.448000,2774.948028

2.187399,7.174415,9.516071,15.906469,0.657286,0.209719,-0.871067,7.456000,2775.502520

3.090321,3.090906,9.748388,15.921175,0.330070,0.115125,-1.087435,7.456000,2777.167906

0.613871,2.041888,7.875483,15.903528,-0.097336,0.123651,-1.192687,7.448000,2775.502520

1.162330,1.637130,9.951965,15.912352,0.084658,0.135909,-0.975787,7.444000,2776.612565

-3.857631,-1.814093,7.619215,15.906469,0.034829,0.012270,-0.561704,7.436000,2773.839254

-5.194052,-0.642929,6.958190,15.906469,-0.045909,-0.026367,-0.134565,7.444000,2761.153297

-2.296078,2.829849,8.510163,15.903528,-0.235364,-0.334398,0.289377,7.420000,2733.971071

-1.682953,0.636012,13.410374,15.915293,0.184848,-0.377565,0.259800,7.412000,2775.502520

-1.970355,-3.332536,12.126643,15.885881,0.282106,-0.395950,0.347199,7.440000,2774.948028

-0.423173,-1.598542,15.058146,15.912352,-0.416558,-0.297359,0.131631,7.444000,2774.393535

0.177977,5.169784,10.095666,15.927057,0.723901,-0.100444,-0.075144,7.444000,2777.167906

-2.274523,-1.129118,7.997629,15.909410,0.140881,-0.156934,-0.166274,7.448000,2763.351139

-1.369205,-1.062057,8.373647,15.900587,0.047353,-0.251794,-0.289646,7.456000,2647.947982

-1.132098,-1.083612,7.259963,15.935881,0.038027,-0.038891,-0.241949,7.456000,2776.057437

-2.296078,-1.988930,8.878996,15.912352,0.551766,-0.220352,-0.694936,7.448000,2777.167906

-6.130504,-4.910853,4.383544,15.927057,-0.149829,-0.211558,-0.834562,7.436000,2672.923890

1.296451,-6.685563,12.557746,15.929998,-0.670497,-0.456171,-0.381309,7.412000,2642.908178

2.062858,-1.727873,21.898323,15.915293,-0.324629,-0.104441,-0.129236,7.404000,2767.205892

0.405504,3.481295,12.476315,15.900587,0.848073,-0.247264,0.182792,7.432000,2656.560101

-1.651818,-0.446537,7.140212,15.912352,0.254128,-0.569950,1.069846,7.436000,2339.258624

-4.125873,5.054823,6.280400,15.909410,0.097981,-0.489479,1.750124,7.432000,2772.177894

-3.445687,2.391561,6.208549,15.906469,0.069736,-0.529182,1.967291,7.432000,2775.502520

-4.034862,-1.488371,10.327983,15.912352,0.108906,-0.423130,1.937714,7.444000,2774.393535

-3.143915,-2.937358,9.623847,15.909410,0.162198,-0.446045,1.756253,7.444000,2698.899876

2.311940,7.318116,5.157135,15.915293,0.575215,-0.330134,1.510841,7.456000,2602.293750

-0.518973,1.546119,5.159531,15.927057,0.018575,-0.103908,1.460480,7.444000,2761.153297

1.988612,-2.415243,10.852492,15.921175,0.194174,-0.184113,1.189487,7.448000,2271.897810

2.553837,-2.405663,9.959150,15.924116,0.084924,-0.016774,1.156446,7.424000,1916.081011

-0.198041,-0.527968,10.665681,15.915293,-0.118120,0.259014,1.279019,7.436000,1726.021126

3.777692,5.751773,10.287268,15.912352,0.222685,-0.096447,1.061052,7.420000,1007.753744

-1.836234,-0.348342,10.823752,15.924116,0.036428,0.046111,0.767144,7.420000,1578.653903

-4.365375,-2.527809,13.951648,15.918234,-0.337952,0.273403,0.227291,7.416000,1900.867737

3.301083,0.329449,7.693461,15.912352,0.024171,0.167884,-0.324286,7.416000,1681.705135

3.868702,-1.430890,9.365185,15.912352,-0.181272,0.247290,-0.608868,7.416000,1547.513633

5.645807,0.875513,7.073151,15.903528,-0.166350,0.379455,-0.692804,7.416000,917.283588

3.241207,-0.365107,9.757969,15.900587,0.218422,0.336821,-0.754357,7.428000,1608.646838

-2.947523,6.115817,8.574828,15.924116,0.082526,0.571841,-0.306167,7.440000,2059.602486

-2.087711,1.309012,8.306586,15.921175,-0.066427,0.178010,0.088198,7.440000,2585.336058

0.508490,-1.301559,10.081296,15.915293,-0.316635,0.053838,0.324017,7.428000,1593.509205

-0.624354,0.528236,12.488291,15.924116,-0.027523,0.113259,0.365319,7.432000,1840.890767

0.462985,3.210657,11.666799,15.900587,0.404146,0.097272,0.005861,7.424000,2112.878716

-0.286657,1.977222,12.835568,15.891764,-0.486904,0.210785,-0.314960,7.416000,1957.682170

6.294857,2.084998,8.277846,15.915293,-0.168748,0.078086,-0.698666,7.416000,2760.055541

0.932408,-0.554313,11.942226,15.888823,0.104109,0.096739,-0.871334,7.392000,2768.309369

-1.819469,-1.548246,8.819120,15.903528,-0.397107,0.110328,-0.897447,7.392000,2051.084230

-1.579967,-0.448932,5.437353,15.912352,-0.235897,0.189201,-0.791928,7.384000,2631.389050

-0.686625,2.475386,9.082573,15.915293,0.114501,-0.146542,-0.221698,7.388000,2769.413481

0.427059,-1.387780,11.412927,15.918234,-0.014466,-0.277108,0.438862,7.396000,2150.842512

-1.656608,3.210657,5.605004,15.915293,-0.007272,-0.196637,1.230522,7.404000,2777.167906

-0.966842,2.518497,3.660248,15.900587,0.120897,-0.280039,1.771974,7.428000,2686.888549

-5.325778,5.586517,13.886982,15.900587,0.110505,-0.025834,1.595576,7.428000,2215.354161

-1.021928,-7.317848,9.611873,15.906469,0.117433,-0.593932,1.483129,7.436000,2475.635468

-0.883016,4.927886,10.998589,15.891764,0.234410,0.513220,0.937680,7.428000,2772.177894

4.479433,2.262230,11.463223,15.918234,-0.313704,-0.495874,0.353061,7.412000,2776.612565

4.785995,0.616851,10.167517,15.915293,0.103310,0.101801,0.422875,7.408000,2775.502520

3.701051,-0.748310,9.310100,15.909410,-0.099201,0.184138,0.541983,7.392000,2771.624673

-2.197882,-1.148278,8.088639,15.900587,0.072667,0.009073,0.495086,7.388000,2773.285397

-0.890202,-0.408217,0.817360,36.527058,0.121962,0.007740,-0.000268,7.408000,2776.612565

3.166962,3.134017,7.226432,15.915293,0.033763,0.791939,-0.558240,7.432000,2776.057437

0.688116,5.828414,9.556787,15.915293,0.225616,0.507624,-0.189989,7.448000,2777.167906

1.880836,9.511954,6.867179,15.918234,0.322076,0.416760,-0.341606,7.464000,2776.057437

-3.831285,-5.899997,10.306428,15.915293,0.064939,0.179608,-0.705061,7.452000,2777.167906

2.592157,-4.142052,13.549284,15.906469,0.165662,0.220377,-1.276357,7.444000,2777.167906

2.910695,6.537340,5.046965,15.915293,0.463834,0.441541,-1.689373,7.428000,2776.612565

0.956359,0.384534,1.116738,15.912352,-0.137839,0.031189,-1.762118,7.400000,2777.167906

-0.320187,-5.454523,12.768508,15.906469,0.095050,0.090876,-1.610767,7.388000,2776.612565

-6.743629,2.614298,4.275768,15.894705,0.122495,0.042647,-0.952605,7.436000,2733.432893

-3.297196,0.286339,8.299401,15.891764,-0.244424,-0.116964,-0.407156,7.448000,2776.057437

-2.935548,-0.120815,12.581697,15.918234,0.189377,-0.225414,-0.154283,7.456000,2777.167906

0.489330,3.237003,8.519743,15.906469,0.309552,-0.306419,0.040767,7.464000,2775.502520

0.889298,-0.326786,7.923383,15.894705,0.150207,-0.132952,0.046896,7.464000,2758.958844

-1.934430,1.388048,6.891129,15.915293,0.258391,-0.117497,-0.403958,7.452000,2775.502520

2.419716,-6.323915,9.334050,15.906469,-0.003009,-0.523319,-0.463380,7.444000,2737.744461

-2.846932,-1.342275,12.320640,15.903528,-0.078151,-0.106039,-0.669888,7.420000,2776.057437

-1.182394,-1.150673,9.765154,15.894705,0.151540,-0.231810,-0.588883,7.424000,2315.850424

0.884508,4.178246,8.819120,15.903528,0.212027,-0.282970,-0.047432,7.432000,2776.057437

0.709672,2.717283,8.397597,15.888823,0.344459,-0.303488,0.838556,7.428000,2771.071451

-4.576137,-5.286871,9.408296,15.909410,-0.236430,-0.476955,1.287545,7.420000,2777.167906

-4.619247,-0.463302,9.504096,15.906469,-0.114390,-0.400480,1.539619,7.424000,2777.167906

-2.767897,1.462293,9.551997,15.915293,-0.020595,-0.459901,1.662458,7.420000,2776.057437

-1.395551,6.403219,8.855046,15.900587,0.522722,-0.302689,1.584918,7.440000,2506.016887

-2.557135,0.116292,8.263476,15.900587,-0.011802,-0.510263,1.244378,7.432000,2774.948028

1.023419,-3.607963,9.808264,15.900587,-0.135174,-0.419932,0.965126,7.436000,2764.451438

2.026932,-0.020224,9.856164,15.906469,-0.147165,-0.030097,1.025613,7.420000,2766.103475

2.036512,2.604717,9.173584,15.909410,-0.232966,0.034919,1.218265,7.432000,2775.502520

-1.666188,2.719678,10.579460,15.918234,-0.146632,0.130846,1.175365,7.412000,2775.502520

0.410294,2.223909,8.459867,15.885881,-0.003808,-0.035427,0.418078,7.432000,2472.990133

0.352814,-0.542338,10.301638,15.906469,-0.023526,0.012270,-0.117245,7.444000,2465.087815

1.806591,0.942574,10.011841,15.894705,0.178719,0.079685,-0.612332,7.440000,2775.502520

3.238812,1.045560,8.093430,15.903528,0.062808,0.018399,-0.645373,7.448000,2777.167906

3.310663,2.516102,9.358000,15.891764,0.123295,0.163088,-0.323487,7.456000,2757.315283

-1.108148,-0.937516,9.765154,15.888823,0.112903,0.096472,0.102320,7.460000,2775.502520

-2.679281,-0.053754,9.760364,15.900587,-0.159955,0.086880,0.308296,7.444000,2775.502520

-0.868646,0.214488,10.385464,15.882940,-0.157823,0.004276,0.450587,7.444000,2558.658533

-0.487838,0.971314,8.548483,15.909410,-0.045110,-0.097512,0.416746,7.440000,2662.162449

-1.206344,0.537816,8.771220,15.900587,0.010581,-0.012511,0.207839,7.444000,2768.309369

0.063016,-0.123210,8.900552,15.912352,0.011647,-0.049549,0.218498,7.460000,2720.046881

-1.438661,-0.312416,10.608200,15.897646,-0.048041,-0.058076,0.439662,7.464000,2501.502336

-0.600404,1.639525,9.365185,15.918234,0.075065,-0.136949,0.664023,7.456000,2776.612565

-0.825536,-0.386662,11.005774,15.897646,0.018042,-0.100177,1.092228,7.456000,2774.948028

0.451009,-1.220129,15.925144,15.912352,-0.034185,-0.133751,1.344835,7.468000,2167.291901

2.920275,5.047637,11.163845,15.874117,0.199503,-0.082857,1.503913,7.460000,2178.512700

1.435363,1.445528,11.482383,15.897646,0.484884,0.099936,1.249175,7.464000,2776.612565

-2.262548,0.652777,7.700646,15.906469,-0.044843,0.119388,0.718914,7.468000,2775.502520

1.835331,1.143756,9.233459,15.906469,-0.077085,0.047976,0.367184,7.460000,2192.616353

2.561022,-2.453564,11.000983,15.906469,-0.083747,0.357339,0.093793,7.456000,2342.810811

2.067648,-1.957795,8.972402,15.909410,0.047353,0.284328,-0.043435,7.452000,2774.393535

1.801800,2.405931,5.602609,15.894705,0.035096,0.352543,-0.150286,7.456000,2776.612565

0.120497,-0.154345,7.616820,15.885881,-0.094938,0.255284,-0.290712,7.452000,2775.502520

1.131195,0.226463,9.326865,15.897646,0.062541,0.441541,-0.120442,7.460000,2773.839254

-1.271010,-7.303478,17.012482,15.900587,0.179785,0.194530,0.039435,7.448000,2777.167906

-0.995582,3.260953,8.450288,15.915293,-0.057100,0.265143,0.333610,7.452000,2592.092523

-2.245783,7.667789,5.787025,15.894705,-0.082414,0.445272,0.188121,7.440000,2776.612565

0.537230,1.024005,12.296689,15.900587,0.451044,0.196396,-0.190522,7.460000,2776.057437

2.316730,6.903778,11.513517,15.891764,0.410808,0.533471,-0.626988,7.460000,2776.612565

4.393212,-1.474001,9.722043,15.906469,-0.505823,0.445005,-1.432237,7.436000,2776.612565

-1.776359,-1.308744,10.395043,15.906469,-0.602016,0.045578,-1.852448,7.444000,2776.612565

-0.890202,-0.408217,0.817360,36.527058,0.121962,0.007740,-0.000268,7.460000,2777.167906

1.437757,-1.097983,9.736413,15.906469,0.152606,0.356007,-2.141294,7.460000,2776.612565

-0.061525,1.007240,13.005615,15.900587,0.311950,0.177743,-0.068749,7.476000,2777.167906

-5.656291,-2.391293,10.754296,15.897646,-0.448534,-0.350119,-0.742899,7.468000,2767.757631

-1.347650,3.754327,11.022539,15.897646,0.211760,0.032788,-0.335211,7.472000,2775.502520

-3.795360,-2.446379,10.277688,15.912352,0.027368,-0.168658,-0.089000,7.460000,2766.103475

-3.723510,-2.637980,9.173584,15.897646,-0.006206,-0.286434,0.081536,7.448000,2112.878716

-3.742670,3.205868,7.698251,15.909410,0.730563,-0.359978,0.306697,7.456000,2297.078395

-3.790570,-1.730268,10.440549,15.903528,-0.133575,-0.652287,0.699729,7.452000,2777.167906

-0.792006,-2.673906,12.883469,15.894705,0.271714,-0.526784,1.308063,7.448000,2777.167906

-0.449518,-0.211825,7.746151,15.888823,0.151540,-0.680532,1.448489,7.452000,2270.783315

-3.182235,3.498060,6.733058,15.879999,0.180584,-0.359445,1.429836,7.448000,2777.167906

-0.183671,-1.842834,10.074111,15.903528,0.036428,-0.357047,0.622721,7.456000,2774.948028

-0.626749,3.260953,14.052238,15.882940,-0.326227,0.005609,0.084467,7.468000,2774.393535

4.821920,2.144874,12.869099,15.903528,0.101711,-0.124958,-0.302170,7.456000,2245.446150

2.680773,-3.591198,10.610596,15.888823,0.291166,-0.076728,-0.585686,7.464000,2777.167906

1.121615,3.047796,4.038661,15.891764,0.015377,-0.103908,-0.517205,7.468000,2776.057437

0.506095,1.100645,11.772180,15.900587,-0.439208,-0.045552,-0.349067,7.448000,2754.034092

-0.866251,1.294642,14.622253,15.888823,0.221086,0.187336,0.056222,7.440000,2773.839254

-2.439779,5.612862,7.691066,15.879999,0.297828,-0.144143,1.036005,7.448000,2776.612565

-2.705626,0.453990,10.342353,15.888823,0.166995,-0.325871,1.413049,7.444000,2776.612565

1.337167,1.304222,11.738649,15.903528,-0.086411,-0.011712,0.775405,7.448000,2776.612565

-0.083080,-0.566288,12.026052,15.885881,-0.303312,0.412497,0.335208,7.432000,2774.948028

1.545533,0.873118,9.027488,15.888823,-0.126914,0.075955,-0.068749,7.436000,2775.502520

-0.090265,-0.824950,11.662009,15.877058,0.046021,0.382120,-0.098060,7.448000,2775.502520

1.339562,1.852681,9.101733,15.882940,-0.451198,0.273137,-0.579024,7.452000,2777.167906

3.540585,2.872960,9.690907,15.874117,-0.253217,0.539066,-0.854014,7.444000,2682.217418

1.535953,0.430040,11.458432,15.894705,-0.084812,0.614742,-1.042403,7.444000,2776.057437

-1.639843,1.218001,9.156818,15.871176,-0.056567,0.549725,-1.407723,7.436000,2302.792616

0.745597,1.244346,10.210628,15.888823,-0.236963,0.428751,-1.490592,7.444000,2334.539185

0.640216,-0.242961,12.275134,15.879999,0.062541,0.353609,-1.215070,7.452000,2182.964957

-1.299750,5.318275,9.489726,15.871176,-0.022993,0.418892,-0.762617,7.456000,2775.502520

1.085690,-2.156581,11.046489,15.888823,-0.081082,-0.009846,-0.340274,7.444000,2776.612565

0.003141,-2.434404,16.104771,15.879999,0.118498,-0.023969,0.014388,7.452000,2777.167906

-1.548832,-5.943107,8.344907,15.882940,0.785987,0.184938,0.188121,7.468000,2012.440508

-5.637130,-1.165043,10.232183,15.877058,0.108906,0.290990,0.290443,7.476000,2770.518653

-1.649423,7.698924,3.593188,15.888823,0.873653,0.504693,0.191852,7.484000,2116.421156

-6.278996,11.574066,-0.792093,15.888823,0.129157,0.225707,-0.147888,7.480000,2633.385182

-4.228859,5.610467,-0.174178,15.882940,-0.273468,-0.124958,-0.510010,7.468000,2773.839254

6.860082,-0.439352,14.191150,15.882940,0.758541,0.135376,-1.063986,7.476000,2553.013385

-0.207621,-5.061740,8.141330,15.879999,-0.085612,0.272337,-1.353364,7.472000,2774.948028

0.149237,-0.276491,10.299243,15.879999,-0.304910,0.379455,-1.333113,7.460000,2775.502520

1.080899,2.475386,15.218613,15.894705,0.150740,-0.009313,-1.602240,7.456000,2773.285397

-0.607589,-2.542179,10.186677,15.891764,-0.146365,0.670965,-1.637946,7.456000,2777.167906

-2.873278,-0.738730,6.979745,15.885881,-0.109860,0.035719,-1.368553,7.452000,2777.167906

-1.670978,-1.095588,13.470249,15.877058,0.158734,0.208386,-1.505514,7.452000,2773.839254

-4.430040,-0.192665,8.737690,15.900587,0.211494,-0.015176,-1.450623,7.464000,2772.731539

-0.892597,-1.023737,0.201840,35.768234,0.121962,0.007740,-0.000268,7.464000,2774.948028

3.044816,-0.465697,18.813538,15.874117,0.016177,-0.168924,-1.003232,7.472000,2776.612565

-3.397787,2.774764,8.098220,15.882940,0.295696,-0.221684,-0.640577,7.460000,2777.167906

-1.247059,7.550433,6.378595,15.874117,0.267984,-0.124425,-0.572896,7.484000,2777.167906

-0.624354,-3.157700,12.830778,15.868235,0.079595,-0.107905,-0.493490,7.488000,2776.612565

-1.211134,-0.393847,11.463223,15.859411,0.412939,0.073290,-0.582222,7.484000,2702.576861

-2.226622,-4.549206,9.997471,15.877058,0.278109,-0.277375,-0.303502,7.476000,2652.500459

-6.858590,0.075577,10.811777,15.868235,-0.020595,-0.274710,-0.310430,7.468000,2776.057437

-3.658844,2.142479,9.913645,15.853529,0.059610,-0.339727,-0.234755,7.460000,2777.167906

-0.607589,-0.554313,11.463223,15.868235,-0.001943,-0.535044,-0.104988,7.456000,2669.840384

-0.332162,-0.034594,9.434641,15.871176,-0.078950,-0.442048,0.016519,7.452000,2776.612565

-1.134493,0.825218,9.547207,15.868235,0.107573,-0.261120,0.173199,7.448000,2776.612565

-1.951195,1.752090,9.669353,15.862352,0.274645,-0.305087,0.425806,7.456000,2773.285397

-1.548832,1.026400,9.128078,15.874117,0.210694,-0.302156,0.668020,7.476000,2358.328770

-2.537975,3.251373,12.890654,15.847647,-0.107462,-0.303222,0.889983,7.468000,1700.029354

-1.469796,-1.323114,8.519743,15.853529,0.230146,-0.375166,1.037071,7.460000,1800.082891

-3.656449,-2.223642,9.664562,15.841763,-0.111459,-0.215022,0.939279,7.444000,2646.938580

-2.463729,1.605994,10.347143,15.853529,-0.036849,-0.187044,0.501481,7.452000,2241.097502

-1.335675,0.767738,10.090877,15.847647,-0.204188,-0.223016,0.196914,7.444000,1072.017280

0.326468,0.010911,11.410532,15.853529,0.004452,-0.193439,0.103386,7.440000,1068.470285

0.446219,1.732930,11.156660,15.841763,0.217090,-0.035427,0.075141,7.444000,2737.744461

-1.960775,-0.599819,8.486213,15.832939,0.263987,-0.158532,0.129499,7.456000,2412.830521

-0.598009,3.054981,6.838439,15.844706,0.098247,-0.142012,0.168936,7.448000,2773.839254

-0.274681,3.028636,5.791816,15.844706,0.225883,-0.143610,0.193184,7.452000,2776.057437

-3.608549,2.951995,6.735453,15.838821,-0.200990,-0.098312,0.295506,7.448000,2776.057437

-1.268615,0.698282,9.343630,15.847647,0.027102,-0.239271,0.230489,7.460000,2760.604313

-1.326095,-1.287189,10.747111,15.853529,-0.123716,-0.150006,0.429803,7.452000,2776.057437

1.068924,3.826177,8.888577,15.832939,-0.000344,-0.195571,0.542783,7.448000,2722.179888

-3.270851,-1.993720,15.211428,15.841763,-0.037915,-0.131087,0.818038,7.448000,2777.167906

-1.946405,1.443133,11.456038,15.841763,-0.181538,-0.072199,1.002164,7.444000,2777.167906

-0.918942,-0.137580,11.702724,15.856470,-0.126114,-0.081258,0.970455,7.436000,2777.167906

0.654586,1.464688,9.602292,15.847647,-0.320099,-0.121761,1.093294,7.440000,2775.502520

1.593434,2.834639,8.289822,15.844706,0.390557,-0.194505,0.751423,7.464000,2777.167906

0.314493,-1.318324,10.088481,15.838821,-0.011269,-0.113234,0.396761,7.460000,2776.057437

0.767152,2.686148,10.804592,15.853529,0.197105,0.127915,0.116709,7.480000,1676.021636

1.059344,3.244188,9.446616,15.824116,0.169926,0.190800,-0.134032,7.484000,2610.120214

2.254459,-1.809304,13.170872,15.838821,0.053748,0.068227,-0.138295,7.480000,2735.048063

2.012562,0.640802,8.344907,15.850588,0.373503,0.236898,-0.237419,7.488000,2776.057437

-2.739156,-5.250947,11.118340,15.850588,0.109972,-0.007715,-0.366387,7.476000,2769.413481

-0.130980,-0.681249,10.701606,15.856470,0.254128,0.223308,-0.450856,7.480000,2257.860052

0.300123,-1.665602,6.270820,15.832939,0.208296,0.103400,-0.705860,7.472000,2776.057437

0.151632,2.808294,5.693620,15.844706,0.227215,0.246224,-0.918231,7.480000,2241.459183

-1.002767,1.764066,7.885063,15.838821,0.441717,0.091942,-1.260902,7.488000,2755.673628

0.587526,5.153018,7.863508,15.832939,0.030299,-0.087387,-1.132467,7.480000,2769.966067

2.359840,1.201236,3.001618,15.835880,0.195772,-0.312015,-0.775141,7.468000,1812.063072

-1.290170,-1.476396,5.159531,15.835880,0.153405,-0.191307,-0.344271,7.472000,1989.375344

-0.911757,-3.243920,17.048409,15.850588,-0.053903,-0.289365,0.008259,7.456000,2777.167906

-0.236361,4.286021,11.451247,15.838821,0.261322,-0.187044,0.419411,7.444000,2725.385649

-2.535580,2.923255,6.962980,15.832939,0.265586,-0.367173,0.867867,7.444000,2025.060358

-1.053063,1.004844,10.105247,15.841763,-0.404035,-0.468428,1.321919,7.424000,2770.518653

-2.949918,4.597374,11.530283,15.841763,0.048952,-0.474024,1.496186,7.424000,2777.167906

-2.233808,-0.925541,12.608042,15.835880,-0.038448,-0.818826,1.379475,7.416000,2776.057437

0.637821,-4.369579,9.949570,15.821175,0.013779,-0.070600,1.506844,7.420000,2775.502520

-0.952472,0.892279,8.958032,15.838821,-0.351275,-0.094315,0.969123,7.420000,2491.627406

-0.181276,0.015701,8.124565,15.844706,0.153938,0.067161,0.660293,7.420000,2034.853291

2.814894,2.415511,8.253896,15.818233,-0.062163,0.088745,0.593411,7.432000,1805.231390

1.962267,2.597533,7.530600,15.847647,-0.359002,0.090610,0.646703,7.428000,2749.126714

-1.213529,3.059771,9.633428,15.841763,-0.126914,0.302981,0.573426,7.432000,2772.177894

0.201927,1.682635,8.694579,15.835880,-0.150096,-0.074064,0.381839,7.428000,2775.502520

0.429454,1.740115,9.434641,15.832939,-0.310773,0.061832,0.452985,7.412000,2775.502520

-2.710416,-1.914684,8.823911,15.827057,-0.523676,-0.050082,0.490023,7.404000,2776.057437

-0.729735,-3.828305,10.498030,15.835880,-0.396840,-0.227280,0.520933,7.420000,2766.654578

3.801642,-3.816330,11.786550,15.847647,0.419068,-0.412738,0.459380,7.424000,2765.001905

-2.854117,-4.350419,10.356724,15.827057,0.287969,0.142837,0.688005,7.456000,250.366728

-2.542765,4.860826,11.135105,15.835880,0.369506,0.225174,0.721846,7.468000,2034.555174

0.872533,7.155255,6.244474,15.847647,0.210428,0.104733,0.524397,7.480000,2542.728253

1.147960,-5.377882,10.531560,15.829998,0.357249,0.169749,0.601404,7.492000,2099.461770

2.189794,8.108473,7.185717,15.827057,0.440918,0.513752,0.491089,7.492000,2380.565691

-2.209857,-1.282399,2.441183,15.824116,0.152339,0.186803,0.388767,7.480000,1943.162594

1.303637,5.984090,3.092629,15.832939,-0.170880,0.256883,0.355726,7.460000,992.838480

1.727555,-4.194743,7.944938,15.844706,-0.144767,0.010671,0.514271,7.444000,2550.668497

0.051041,-9.099743,23.821524,15.847647,0.145678,-0.045286,0.595809,7.436000,2772.731539

-4.080368,-2.261962,6.795329,15.853529,0.288235,0.272071,0.350130,7.436000,2777.167906

2.072438,5.210499,7.889853,15.841763,-0.094405,0.031189,0.085000,7.420000,2777.167906

1.519188,1.996382,13.613950,15.859411,0.126226,0.215847,-0.106586,7.440000,2270.040884

5.094953,-1.430890,6.232499,15.844706,-0.076819,0.303780,0.270458,7.436000,2775.502520

-2.607430,2.484967,6.201364,15.827057,-0.264675,0.513220,0.492688,7.452000,2214.294332

-0.700995,2.336475,8.680209,15.847647,0.008982,0.295786,0.405288,7.444000,2327.495833

-1.306935,3.636971,11.027328,15.862352,-0.009670,0.426886,0.266195,7.456000,2776.057437

-0.894992,2.221514,8.644284,15.853529,0.117433,0.152696,-0.225162,7.444000,2774.948028

2.702328,-3.313376,9.863349,15.853529,-0.146365,-0.034894,-0.915833,7.440000,2254.194720

5.387145,-0.077704,11.865585,15.850588,0.002854,0.413296,-1.040271,7.432000,2774.393535

1.837726,-2.544574,6.886340,15.865294,-0.243891,0.398108,-0.973122,7.392000,2773.839254

-2.432594,2.216724,13.060700,15.841763,-0.272136,0.565979,-1.153251,7.420000,2777.167906

-2.324818,0.082762,5.329577,15.847647,-0.071223,0.295520,-1.154050,7.420000,2775.502520

-2.418224,-3.833095,9.274175,15.853529,-0.124249,-0.128955,-1.420246,7.440000,2776.057437

-2.183512,9.140726,4.802673,15.865294,0.185913,0.201192,-1.504715,7.464000,2776.057437

-0.353717,-1.672787,12.885864,15.847647,-0.781878,-0.104441,-1.190556,7.440000,2776.057437

1.670074,-11.197780,16.308346,15.856470,0.068670,0.255817,-0.720782,7.456000,2773.285397

-0.794401,6.855877,15.616186,15.865294,-0.340883,0.261412,-0.076210,7.448000,2776.057437

7.530687,1.292247,6.421706,15.856470,0.834750,-0.374367,0.182259,7.464000,2773.839254

-3.127150,2.662198,8.646679,15.853529,-0.293186,-0.096713,0.813509,7.440000,2777.167906

-6.523287,4.264466,7.125842,15.865294,0.017776,-0.133751,0.476967,7.440000,2776.057437

-1.752409,-2.518229,9.619058,15.859411,0.038293,-0.289898,0.180394,7.436000,2776.057437

1.672469,-0.683644,11.125525,15.871176,0.143013,-0.285901,-0.027447,7.448000,2766.654578

-0.166906,3.392679,7.865902,15.865294,0.260523,-0.031963,-0.184393,7.452000,2776.057437

2.393370,0.106712,12.866704,15.859411,0.008716,-0.228079,0.046097,7.456000,2459.411944

1.859281,1.641920,10.057346,15.865294,0.437187,0.030390,0.300835,7.464000,2771.624673

-0.890202,-0.408217,0.817360,36.527058,0.121962,0.007740,-0.000268,7.452000,2775.502520

-2.003886,1.991592,9.142448,15.859411,0.324207,0.036518,0.740764,7.460000,2776.057437

-2.844537,5.828414,0.515588,15.868235,0.206431,0.049575,0.505212,7.440000,2777.167906

0.805472,3.004686,15.333574,15.865294,0.431325,0.168417,0.138026,7.452000,2774.393535

-0.145350,6.645116,7.334208,15.850588,-0.424019,-0.060741,-0.068749,7.416000,2776.057437

1.092875,-1.826069,8.316167,15.862352,-0.566044,-0.017574,-0.552378,7.404000,2772.731539

-1.941615,4.973392,9.398716,35.771175,0.053482,-0.060741,-0.068749,7.412000,2777.167906

2.105968,3.953113,9.334050,15.868235,-0.120785,-0.177718,-0.019986,7.440000,2777.167906

-1.086593,-6.266435,11.999706,15.865294,-0.050972,0.064230,-0.259536,7.420000,2777.167906

1.488053,2.681358,8.694579,15.859411,0.251463,0.263544,0.115110,7.432000,2776.612565

-4.137848,3.107671,0.977826,15.850588,0.187246,0.045844,-0.119110,7.464000,2748.582603

-0.439938,13.205074,6.505531,15.853529,0.306621,0.012004,-0.079407,7.456000,2776.612565

2.287989,-3.366066,15.285673,15.856470,-0.330224,0.087945,0.106051,7.452000,2777.167906

2.503541,-3.845070,12.895444,15.856470,0.392955,0.182007,0.070611,7.452000,2776.612565

-2.264943,-0.793815,10.141171,15.859411,-0.122384,0.062365,-0.042635,7.456000,2773.839254

2.254459,4.115975,9.798684,15.862352,0.018308,-0.072998,-0.260069,7.460000,1878.749681

1.521583,4.966207,10.088481,15.868235,0.064939,0.165752,-0.043168,7.452000,2158.196905

-1.644633,0.935389,4.196733,15.868235,0.130489,-0.040223,-0.140161,7.452000,2656.052010

-2.674491,-0.566288,6.792934,15.850588,-0.403768,-0.061274,-0.280053,7.428000,2654.021341

-1.247059,-0.563893,12.526611,15.859411,-0.311306,-0.117497,-0.365321,7.412000,2774.393535

3.243602,-1.502741,18.667440,15.853529,-0.250552,-0.031963,-0.481233,7.432000,2767.757631

2.000587,3.977064,11.477592,15.853529,0.665812,-0.052480,-0.586752,7.440000,2774.393535

0.465380,3.110067,6.383386,15.865294,0.045221,-0.255258,-0.279254,7.448000,2768.309369

-1.057853,4.202196,7.075546,15.841763,-0.175143,-0.104973,0.010924,7.432000,2776.612565

0.989889,0.727022,11.829660,15.832939,0.074532,-0.170790,0.215034,7.420000,2774.393535

0.815052,2.609508,8.998747,15.841763,0.145411,-0.170523,0.650967,7.412000,2776.612565

-2.564320,-1.270424,6.785749,15.874117,0.236008,-0.202765,1.059986,7.420000,2776.612565

-1.194369,4.635695,4.354804,15.859411,0.452376,-0.089252,1.121273,7.452000,2776.612565

-0.621959,6.688226,3.459067,15.853529,0.368174,-0.132952,0.929686,7.452000,2777.167906

-3.263666,3.284903,4.989484,15.862352,-0.438941,-0.026367,0.706124,7.444000,2776.057437

0.501305,0.968919,9.769943,15.874117,-0.202855,-0.413004,0.001065,7.456000,2667.788527

4.177660,-4.436640,19.953568,15.874117,0.284238,-0.085788,-0.034375,7.444000,2742.069378

5.102138,-1.905104,12.210468,15.868235,0.567754,0.134576,0.007460,7.456000,2776.612565

-0.974027,-5.334772,13.089440,15.859411,0.064406,0.090077,0.085267,7.452000,2777.167906

-0.066315,1.651500,12.404465,15.862352,0.327671,0.006408,-0.407156,7.448000,2777.167906

-1.991910,1.958062,6.706713,15.874117,0.316214,0.237964,-0.000268,7.468000,2776.612565

-0.552504,12.074625,2.055585,15.862352,0.207763,0.213449,-1.137796,7.452000,2777.167906

0.388739,-1.188993,13.082255,15.879999,-0.960675,-0.211292,-0.842289,7.436000,2775.502520

1.523978,-4.434245,4.333249,15.874117,0.494743,0.118589,-0.596078,7.436000,2776.057437

1.401832,-1.069242,8.534113,15.871176,-0.038182,-0.336263,-0.312295,7.424000,2777.167906

0.546810,-2.875087,7.312653,15.865294,0.067604,-0.234474,0.462578,7.416000,2399.488368

-3.651659,-0.480068,7.465934,15.856470,-0.392843,-0.355981,1.019751,7.380000,2436.967380

-4.918624,-0.216615,9.925620,15.874117,-0.299315,-0.241935,1.334976,7.360000,2350.345303

-2.755922,-2.396083,16.308346,15.871176,-0.129845,-0.339727,1.162308,7.376000,2352.734686

1.152750,-3.481027,10.603411,15.853529,0.107840,-0.284836,0.770075,7.412000,2773.839254

3.622015,3.826177,9.039463,15.871176,0.039625,-0.143877,0.866002,7.444000,2772.731539

4.354891,3.596256,8.807145,15.853529,0.591469,-0.077261,0.733836,7.456000,2763.351139

1.768270,3.778277,7.856322,15.859411,0.400949,-0.076728,0.614728,7.452000,1667.367883

0.108522,9.351488,5.008644,15.862352,0.746284,0.140172,0.614994,7.464000,1569.908405

-7.071747,-2.082336,5.758286,15.879999,-0.100534,0.159624,0.562767,7.464000,2009.818904

-3.546278,-5.732345,11.111155,15.865294,-0.173544,-0.046352,0.405555,7.452000,2772.177894

-1.989516,0.652777,18.312979,15.871176,0.174988,0.101002,0.176130,7.440000,2699.949323

-0.032785,-4.527650,10.806987,15.879999,0.236541,-0.443647,-0.187857,7.396000,779.884259

0.371974,-4.704882,8.562854,15.868235,-0.027257,-0.128689,-0.066084,7.356000,779.884259

3.981268,1.057535,9.025092,15.865294,-0.632926,-0.082857,0.440461,7.252000,2772.177894

1.337167,0.367769,14.586328,15.862352,-0.687817,0.062099,0.771408,7.184000,1590.042300

0.594711,2.631063,8.481422,15.868235,0.009249,0.019465,0.818838,7.280000,936.208172

-0.272286,1.562884,2.278322,15.856470,0.218955,-0.123359,0.650434,7.320000,2224.225411

-4.372560,1.486243,3.219565,15.859411,-0.286525,0.025060,0.533723,7.340000,2512.819329

-0.425568,4.262071,10.339958,15.879999,-0.103998,-0.027433,0.243545,7.372000,2775.502520

-1.517697,1.577254,6.828859,15.865294,-0.308641,-0.090851,0.111114,7.388000,2773.839254

-1.077013,-0.484858,8.172465,15.868235,-0.570041,-0.228079,0.127901,7.384000,2775.502520

2.326310,-5.557509,10.634545,15.862352,-0.059499,-0.442315,0.251806,7.396000,2772.731539

4.683009,-2.101496,15.319203,15.856470,-0.210849,-0.167592,0.434066,7.396000,2761.153297

-0.487838,2.269415,5.657694,15.862352,0.187246,0.169483,0.490290,7.428000,2766.654578

-4.166588,4.218961,12.773298,15.877058,-0.309707,0.102068,0.360522,7.408000,2737.204800

6.685246,0.669542,10.842913,15.877058,-0.319566,-0.254192,0.317089,7.408000,2762.801308

4.544098,2.295760,14.483342,15.885881,0.035895,0.078086,0.572094,7.416000,2772.177894

2.680773,-1.411730,11.283596,15.879999,-0.030454,0.008540,0.855343,7.388000,2734.509461

-6.116134,-0.372292,11.063254,15.885881,-0.301713,0.293122,0.948605,7.372000,2764.451438

-4.137848,-1.864389,9.700488,15.885881,-0.200724,-0.154269,0.603803,7.368000,2526.075882

2.268829,0.791688,9.120893,15.874117,0.051083,-0.369571,0.185190,7.372000,2658.085644

3.540585,-1.565012,6.433681,15.882940,0.069736,-0.228878,0.167071,7.396000,2739.905225

1.049764,-1.394965,6.785749,15.868235,0.081727,0.022929,0.318421,7.404000,2755.673628

0.446219,3.110067,9.674143,15.868235,0.107573,0.002677,0.226492,7.440000,2005.754600

-1.077013,-0.808185,12.617621,15.874117,0.028168,0.046111,0.280584,7.440000,1124.177427

0.324073,1.560489,11.638059,15.862352,-0.018730,0.022396,0.324284,7.432000,1829.009322

-0.238756,1.122200,5.540339,15.865294,0.259457,0.022929,0.279251,7.440000,1643.100187

0.278568,4.321947,4.017106,15.856470,0.282106,-0.047151,0.365319,7.432000,2076.231974

-5.699400,-2.776891,11.621294,15.877058,-0.057633,-0.243267,0.552642,7.420000,2611.592999

-2.217042,-7.686681,13.872612,15.888823,-0.195661,-0.484416,0.671751,7.392000,1846.766865

5.276974,-2.269147,11.489568,15.877058,-0.133042,-0.212891,1.016553,7.392000,1846.766865

3.780087,0.300709,11.961387,15.862352,0.139815,-0.061540,1.307797,7.400000,1846.766865

-0.049550,1.119806,6.246870,15.874117,0.148875,0.077287,1.526029,7.416000,184.897999

-2.739156,1.879027,9.741203,15.868235,0.402281,-0.009580,1.622489,7.448000,2033.065862

-0.236361,5.057218,8.261081,15.877058,0.738290,-0.146275,1.361356,7.468000,416.892028

2.182609,8.412641,13.360078,15.856470,0.936805,-0.151604,1.137261,7.476000,2106.148949

-2.727181,-1.902709,15.149158,15.882940,-0.115189,0.142570,1.069046,7.480000,2106.148949

-2.533185,-5.435363,8.263476,15.879999,0.171258,0.177477,0.593144,7.492000,756.680259

3.796852,3.222633,5.080495,15.897646,1.471595,-0.072731,-0.034641,7.504000,756.680259

3.827987,7.514508,11.705119,15.891764,0.321010,0.175612,-0.217968,7.500000,756.680259

4.714144,-6.012563,8.627519,15.879999,0.333001,-0.016241,-0.415150,7.484000,756.680259

0.261803,0.161798,8.838281,15.868235,0.150740,0.638190,-0.358660,7.472000,756.680259

0.891693,1.057535,10.675261,15.885881,0.166195,0.113526,-0.332547,7.464000,756.680259

2.666403,-4.017511,11.645244,15.894705,-0.085612,0.198794,-0.003465,7.436000,756.680259

4.235140,-1.821279,11.652429,15.859411,0.138217,0.075422,0.088464,7.432000,756.680259

0.055831,5.093143,10.878838,15.877058,0.621047,0.483376,0.484694,7.424000,756.680259

1.722765,2.161639,5.834926,15.885881,-0.064028,-0.962983,0.548911,7.432000,756.680259

-9.239240,4.602164,9.290939,15.882940,0.763071,0.219578,0.642706,7.448000,756.680259

-1.108148,-1.366225,10.878838,15.900587,-0.038714,-0.532113,1.098091,7.452000,756.680259

3.013680,1.823941,8.926897,15.882940,0.138217,-0.011445,1.441827,7.464000,43.883647

-1.795519,1.958062,9.326865,15.865294,0.437987,0.228105,1.289144,7.472000,388.948195

-2.880463,1.706585,10.040581,15.868235,0.145944,-0.015708,0.954467,7.460000,1167.171491

-1.570387,-2.724201,11.084809,15.906469,0.108639,-0.045286,0.499349,7.468000,1167.171491

2.949015,-1.145883,9.796288,15.918234,0.107307,0.159091,-0.083404,7.468000,1167.171491

5.044657,4.178246,1.708307,15.921175,0.227482,0.349612,-0.149220,7.460000,1167.171491

1.691630,-0.949491,12.071557,15.935881,-0.490901,0.354941,-0.115113,7.456000,1167.171491

3.514239,-2.736176,15.070122,15.929998,0.114235,0.336555,-0.252075,7.456000,1167.171491

0.944383,-0.688434,12.706238,15.947645,0.248799,0.388249,-0.262733,7.452000,1167.171491

-0.887806,2.037098,5.839716,15.959410,0.099313,0.243826,0.127101,7.452000,1167.171491

0.434244,2.029913,8.359277,15.965292,-0.087477,0.199860,0.428204,7.448000,1167.171491

-1.366810,2.753209,8.871811,15.988823,0.113436,0.196396,0.662691,7.436000,1167.171491

-4.681518,-5.830541,14.296531,15.985882,0.125959,-0.095914,0.652565,7.440000,1167.171491

-2.085316,1.126991,11.312336,15.982941,-0.341949,0.177477,0.622721,7.444000,1167.171491

1.387462,8.046202,8.732900,16.000587,0.169659,0.370396,0.050893,7.452000,1167.171491

1.895206,5.459581,3.820714,15.994705,0.031365,0.132711,-0.315759,7.452000,1167.171491

1.183886,0.830008,9.456196,16.012352,-0.325961,-0.088453,-0.515073,7.452000,1167.171491

4.723724,0.437225,12.232023,16.024117,-0.171146,-0.082857,-0.485762,7.436000,1167.171491

3.825592,1.191656,9.892090,16.024117,0.148076,-0.026367,-0.321622,7.432000,1167.171491

-0.140560,-2.273937,8.421547,16.032940,0.060143,0.031189,-0.101524,7.428000,1167.171491

-2.058971,0.717442,7.947333,16.015293,-0.061630,0.074089,0.231022,7.428000,1167.171491

-0.911757,-4.678536,8.730505,16.024117,-0.269205,-0.052214,0.557971,7.404000,1167.171491

-0.449518,1.411998,7.954518,16.041763,0.021772,0.031722,0.879591,7.404000,1167.171491

-2.001491,4.913517,7.338998,16.050587,-0.171146,0.042380,1.032274,7.396000,1167.171491

-1.110543,-0.822555,17.398081,16.056469,-0.106396,-0.107105,1.131665,7.404000,1080.610118

2.778969,-1.550641,10.862072,16.082939,0.342860,-0.188909,1.387202,7.428000,790.810384

-0.708180,-1.931449,10.129196,16.091763,0.014045,-0.020771,1.285147,7.432000,1203.278997

-0.909362,3.522010,11.781760,16.097647,0.109172,0.228904,1.118608,7.436000,2760.604313

2.968175,3.165152,8.534113,16.079998,0.192308,0.077287,0.993371,7.440000,2760.604313

3.406464,4.166270,8.217971,16.100588,0.607191,0.133244,0.771408,7.460000,1196.642457

-2.662516,-1.888339,11.798525,16.094706,-0.186335,0.606748,0.549977,7.448000,1879.512665

1.181490,0.909044,11.879955,16.109411,0.089188,0.325363,0.216100,7.444000,1879.512665

3.748951,1.234766,6.201364,16.115294,0.264253,0.312040,-0.039704,7.444000,320.755800

2.007772,-1.773378,9.295730,16.106470,-0.068558,0.540399,-0.217968,7.440000,320.755800

4.520148,-0.250146,10.644126,16.121176,0.284505,0.496965,-0.579291,7.436000,2069.424658

1.128800,2.415511,8.548483,16.138823,0.090253,0.616607,-0.850550,7.440000,1098.042000

2.644847,-0.585448,10.114826,16.144705,-0.093872,0.635259,-1.256105,7.440000,2536.689642

1.442548,4.714730,8.440707,16.141764,-0.004074,0.882803,-1.466611,7.436000,2731.819630

1.195861,2.638248,8.392807,16.144705,0.005518,0.588362,-1.844721,7.432000,2737.744461

3.487894,3.239398,6.021738,16.124117,0.040158,0.365333,-1.966494,7.436000,2752.942057

1.962267,-3.849860,12.730187,16.138823,-0.190332,0.333091,-1.891618,7.436000,2659.103733

-0.327372,0.425250,13.783997,16.150587,0.150207,0.666169,-1.664060,7.440000,2035.151619

-3.076854,-2.714621,9.650192,16.165293,0.179785,0.423422,-1.761052,7.444000,2055.334353

-2.799032,2.283785,5.949887,16.168234,0.156070,0.387449,-1.607303,7.444000,2764.451438

0.453404,3.953113,8.601173,16.141764,0.042823,0.155627,-1.571331,7.444000,2776.612565

3.456759,0.276759,10.557905,16.144705,0.050018,0.035186,-1.476203,7.452000,2260.065098

-0.027994,-1.648837,10.325588,16.162352,0.120897,0.205455,-1.477269,7.444000,2216.768679

-3.900741,0.396510,12.284714,16.153528,-0.231100,0.159624,-1.529230,7.444000,2775.502520

0.278568,4.293207,10.593830,16.141764,0.133154,0.286193,-1.513242,7.436000,2736.665351

-0.765660,0.250413,9.544811,16.132940,0.158201,0.124717,-1.627288,7.444000,2744.237134

-2.123636,-2.317048,10.847702,16.150587,-0.068558,0.095939,-1.634216,7.444000,2757.315283

-1.213529,0.118687,8.162886,16.121176,0.195772,-0.069001,-1.510577,7.452000,2297.838836

1.147960,2.417906,9.396320,16.135881,0.107840,-0.164128,-1.278488,7.444000,2215.000743

-0.727340,1.091065,11.738649,16.135881,0.259990,-0.129754,-1.078375,7.444000,2048.663277

-2.902018,1.131781,14.028288,16.144705,0.153405,-0.169724,-0.646439,7.452000,2771.071451

-2.842142,1.891002,7.463539,16.115294,0.409475,-0.130287,-0.236620,7.444000,2600.344444

-2.377509,-3.538508,10.768666,16.138823,-0.008071,-0.416202,0.113512,7.436000,2609.629709

-5.297038,1.620364,11.041698,16.138823,0.518725,-0.070600,0.268859,7.444000,2681.181532

-4.499496,-2.094311,9.087363,16.153528,0.071601,-0.399947,0.384238,7.444000,1870.650526

-1.979935,-0.044174,7.439589,16.135881,0.078263,-0.396750,0.474568,7.432000,2739.905225

-3.488798,3.052586,8.855046,16.135881,0.075598,-0.227813,0.633913,7.436000,2013.899945

-4.425251,2.487362,3.439906,16.132940,-0.018730,-0.211026,0.569962,7.416000,2222.801358

-2.399064,-4.779128,14.191150,16.147646,-0.501826,-0.325871,0.590746,7.416000,2619.969718

2.026932,3.385494,15.817368,16.135881,0.243203,-0.199834,0.587016,7.424000,2776.057437

1.071320,3.723191,9.216694,16.124117,0.198704,-0.153203,0.685873,7.436000,2749.126714

-2.540370,4.422538,7.624006,16.127058,0.301558,-0.199834,0.699463,7.440000,1724.092266

-1.876950,-1.847624,9.889694,16.150587,-0.092007,-0.225681,0.684274,7.436000,626.815316

-0.789611,1.740115,10.620175,16.127058,-0.073088,-0.082857,0.462045,7.424000,2130.056764

-0.528554,2.705308,11.911091,16.115294,0.060143,-0.106572,0.166538,7.436000,297.608982

-0.353717,1.292247,9.614267,16.121176,0.176854,-0.080459,-0.180130,7.432000,1205.577271

2.247274,-1.514716,9.841794,16.112352,0.129690,-0.197702,-0.362657,7.448000,2576.222628

-0.406408,-0.578263,12.270344,16.115294,-0.186335,0.188935,-0.206776,7.448000,2635.884531

-1.723668,0.815638,12.073953,16.127058,0.216290,0.319768,-0.301903,7.444000,2006.044454

-0.461493,2.556817,7.322233,16.112352,0.336465,0.187869,-0.437266,7.452000,1712.398548

-0.221991,0.315079,8.498188,16.109411,-0.005673,0.283795,-0.243282,7.444000,1773.868115

-1.898505,-0.209430,8.639494,16.112352,-0.078417,0.273403,-0.233689,7.444000,2774.393535

-2.595455,3.883658,8.790380,16.109411,0.115567,0.272604,-0.232623,7.456000,1178.063981

-1.445846,-0.616584,7.338998,16.103529,-0.154892,0.073556,-0.335478,7.444000,1350.631175

-1.761989,0.978499,11.731464,16.118235,-0.084280,0.130846,-0.558507,7.444000,2678.078957

-0.174091,-0.233381,11.360236,16.109411,0.030566,0.111394,-0.921695,7.444000,1582.612160

-1.168024,0.101922,8.617939,16.129999,0.205099,0.155627,-1.257704,7.440000,1171.405405

0.127682,2.547237,7.463539,16.138823,-0.155692,0.087146,-1.403726,7.436000,439.133478

0.043856,0.216883,9.240644,16.138823,0.007117,0.140439,-1.499386,7.456000,835.892113

0.257013,2.444251,8.268266,16.147646,-0.212714,0.221177,-1.616896,7.456000,603.627155

-0.011229,-3.088244,11.137500,16.144705,0.047886,0.084215,-1.721349,7.464000,1280.863392

-5.438344,-1.732663,12.157778,16.147646,0.361246,0.453265,-1.863373,7.480000,1280.863392

0.860558,3.716007,9.844189,16.159410,0.112636,-0.082324,-1.705361,7.480000,1280.863392

3.959713,8.010277,8.340117,16.147646,0.400149,-0.329335,-1.482332,7.480000,1280.863392

-1.369205,-2.132631,10.064531,16.138823,0.550434,-0.208094,-1.144724,7.476000,1280.863392

-5.596415,-0.772260,8.668234,16.132940,0.015377,0.020530,-0.681612,7.480000,1280.863392

-2.691256,1.847891,7.513834,16.156469,0.140881,-0.273911,-0.428739,7.480000,1280.863392

-3.376232,1.792806,10.366303,16.162352,0.115034,-0.348787,-0.098592,7.472000,1280.863392

-4.832404,-1.450051,12.794853,16.156469,0.241071,-0.087387,0.287512,7.452000,1280.863392

-2.868488,-8.481828,12.785274,16.162352,-0.006206,-0.565954,0.605668,7.444000,1280.863392

-0.583639,2.343660,6.179809,16.159410,0.033497,-0.392220,0.778069,7.440000,49.510239

-2.576295,1.716165,6.606122,16.159410,-0.230567,-0.173721,0.888651,7.436000,49.510239

-2.152377,-0.980627,12.004497,16.159410,-0.128779,-0.234474,0.968856,7.436000,49.510239

-1.139284,2.010753,10.385464,16.153528,0.301558,-0.033295,0.576623,7.460000,49.510239

-3.105594,3.593861,5.707990,16.150587,0.070802,0.020264,0.258467,7.460000,2210.768842

-1.467401,1.361702,5.897196,16.132940,-0.028589,-0.028232,-0.259802,7.460000,1874.438325

1.313216,2.839429,9.072993,16.147646,0.017243,0.081817,-0.859343,7.460000,884.223092

2.949015,1.366493,9.106524,16.129999,-0.059499,0.034919,-1.170837,7.464000,884.223092

3.344193,0.305499,8.833491,16.144705,0.115034,0.176411,-1.229193,7.460000,285.241456

-0.598009,0.243228,8.383227,16.127058,0.257059,0.248356,-1.304335,7.468000,285.241456

-0.873436,-5.349142,5.506808,16.138823,-0.079217,-0.181715,-1.207609,7.452000,1917.403997

-1.821864,4.475228,11.796130,16.141764,-0.298515,0.168950,-0.981116,7.444000,1917.403997

-0.284262,-6.486776,13.594790,16.124117,0.254927,-0.155601,-0.889453,7.452000,1917.403997

-4.949759,-0.827345,14.188755,16.112352,-0.248154,0.183872,-0.745830,7.456000,1917.403997

-3.210975,4.970997,10.177097,16.141764,0.301558,-0.109770,-0.641376,7.464000,1917.403997

-1.575177,-0.726755,6.409730,16.132940,0.005518,-0.458569,-0.462047,7.456000,1917.403997

-0.061525,0.317474,9.683722,16.124117,0.059077,-0.299491,-0.377579,7.460000,1917.403997

0.551600,2.698123,9.152028,16.138823,0.292765,-0.185445,-0.417548,7.472000,1917.403997

1.928736,0.976104,8.735295,16.132940,0.027635,-0.142012,-0.398896,7.464000,1917.403997

-0.842301,1.194051,7.738966,16.109411,0.176054,0.014935,-0.342939,7.464000,1917.403997

-2.578690,-0.846506,10.435759,16.132940,0.214158,-0.134284,-0.568099,7.480000,1917.403997

-1.829049,-1.790143,11.657219,16.109411,-0.062963,-0.081258,-0.793793,7.480000,1917.403997

-1.615892,-0.537548,13.333733,16.115294,0.007650,-0.134018,-0.895582,7.464000,1917.403997

2.132313,2.666988,8.198811,16.147646,0.384428,-0.313880,-0.884657,7.460000,1917.403997

-0.906967,-2.887062,10.375883,16.118235,-0.022194,-0.280306,-0.657098,7.452000,1917.403997

-2.930758,-0.015434,11.391372,16.127058,0.202967,-0.246998,-0.404758,7.456000,1917.403997

-2.466124,-0.480068,9.997471,16.124117,0.388425,-0.419932,0.073009,7.464000,1917.403997

-3.218160,3.076536,5.075705,16.115294,0.543773,-0.391421,0.503346,7.476000,1917.403997

-4.566556,3.208262,8.799960,16.121176,0.053215,-0.538241,0.888385,7.468000,1917.403997

-3.340307,-1.526691,9.841794,16.112352,-0.061097,-0.466297,1.238250,7.468000,1917.403997

-7.981854,-1.603332,10.435759,16.118235,0.104909,-0.281905,1.131398,7.456000,1917.403997

-2.760712,3.136412,10.234577,16.115294,0.307420,-0.796444,1.148452,7.460000,1917.403997

0.118102,-0.925541,9.825029,16.091763,0.122495,-0.842275,1.475934,7.456000,1917.403997

-1.584757,2.717283,9.317285,16.109411,0.062808,-0.504667,1.938780,7.452000,1917.403997

0.302518,0.899464,10.814172,16.115294,-0.159422,-0.565154,2.247343,7.440000,1917.403997

-3.139125,2.980736,9.322075,16.100588,0.091586,-0.357047,2.016853,7.444000,1917.403997

-0.540529,-2.266752,9.235854,16.112352,-0.017397,-0.716505,2.045631,7.464000,1917.403997

0.659376,1.488638,9.417875,16.103529,-0.210316,-0.394085,2.115711,7.448000,1917.403997

-1.302145,-0.798605,13.101416,16.103529,0.256259,-0.249929,2.197248,7.460000,1917.403997

0.479750,-1.972165,9.068203,16.124117,0.062275,-0.501736,2.288911,7.460000,1917.403997

1.600619,1.967642,7.523415,16.118235,0.110505,-0.257124,1.897478,7.476000,2767.205892

1.871256,2.458621,10.330379,16.109411,0.438253,0.030390,1.511374,7.484000,2767.205892

0.434244,-2.283517,8.778405,16.100588,0.154737,0.008273,1.178296,7.484000,2767.205892

1.950292,2.671778,10.002260,16.100588,0.350054,0.132445,0.704792,7.484000,2767.205892

2.719093,-1.440470,9.482541,16.118235,-0.121584,0.387716,0.407686,7.480000,2767.205892

3.983663,4.266861,8.684999,16.100588,0.286903,0.498831,0.035438,7.484000,2767.205892

2.551442,-0.851296,9.906460,16.115294,0.181384,0.442607,-0.135631,7.472000,2767.205892

0.649796,-1.677577,9.808264,16.091763,0.077463,0.330160,-0.239818,7.472000,2767.205892

0.884508,2.415511,5.990602,16.097647,-0.119719,0.519881,-0.456984,7.464000,2767.205892

-0.078290,-5.327587,16.720289,16.106470,-0.304910,0.287526,-0.346403,7.460000,2767.205892

0.908458,-2.420033,9.350815,16.091763,-0.187667,0.588628,-0.212372,7.456000,2767.205892

-1.579967,5.797279,9.592712,16.085880,0.308753,0.714399,-0.441796,7.472000,2767.205892

0.604291,4.875196,7.065966,16.097647,-0.050972,0.361869,-0.556908,7.460000,2767.205892

-0.667465,-2.626005,10.505215,16.091763,-0.153826,0.273936,-0.718917,7.452000,2767.205892

1.569484,-1.095588,12.337404,16.103529,0.133154,0.530806,-0.743965,7.464000,2767.205892

-0.427963,4.286021,9.118498,16.082939,0.130489,0.440209,-0.847885,7.472000,2767.205892

-1.275800,5.191339,9.973520,16.071175,-0.141036,0.679759,-1.211073,7.472000,2767.205892

4.124969,2.267020,8.943662,16.079998,-0.103465,0.071158,-1.152718,7.464000,2767.205892

2.539467,-1.280004,11.489568,16.082939,-0.116522,0.238763,-1.138595,7.464000,2767.205892

1.337167,-3.207995,15.673667,16.079998,0.131022,0.272870,-1.260902,7.464000,2767.205892

-0.691415,-0.039384,11.202166,16.088821,0.157402,0.535602,-1.300338,7.460000,2767.205892

2.218534,6.942098,5.734335,16.094706,0.292498,0.194797,-1.150053,7.468000,2767.205892

0.216298,9.607755,3.681803,16.103529,0.160866,0.082616,-1.042669,7.472000,2767.205892

-1.759594,-3.315771,5.715175,16.106470,0.010048,-0.129222,-0.897180,7.476000,2767.205892

-1.994306,1.285062,13.546889,16.097647,0.080128,0.132978,-0.682145,7.488000,2767.205892

0.189952,-1.555431,10.579460,16.097647,-0.598019,-0.097512,-0.410087,7.472000,2767.205892

0.625846,1.256322,8.924501,16.097647,0.197105,0.093275,-0.084203,7.468000,2767.205892

-1.817074,0.154613,12.073953,16.085880,-0.131976,-0.079659,0.050627,7.452000,2767.205892

-0.478258,0.173773,12.217653,16.088821,0.141947,-0.107905,0.235552,7.456000,2767.205892

-1.136889,1.620364,10.275292,16.088821,0.034563,-0.045019,0.329346,7.460000,2767.205892

-2.111661,0.566556,6.328300,16.065292,0.180051,0.014935,0.186789,7.468000,2767.205892

0.084571,3.318433,5.799001,16.091763,0.229347,-0.089519,-0.035441,7.480000,2767.205892

0.070201,5.548197,10.184282,16.088821,0.194973,-0.014376,-0.232623,7.484000,2767.205892

0.118102,1.979617,7.348578,16.077057,-0.086944,-0.043421,-0.492424,7.480000,15.188397

1.449733,-6.881955,11.570998,16.094706,-0.628129,0.053305,-0.630984,7.476000,15.188397

3.708236,-0.616584,10.572275,16.094706,0.243203,0.324031,-1.071980,7.480000,15.188397

-0.962052,0.767738,12.437995,16.085880,0.112636,0.279532,-1.375214,7.464000,15.188397

-4.341424,0.099527,7.703041,16.077057,0.091319,0.075155,-1.610234,7.480000,15.188397

-4.712653,-1.018947,7.844347,16.085880,-0.185002,0.016267,-1.697900,7.472000,15.188397

-0.449518,3.984249,7.377318,16.106470,0.126759,-0.144676,-1.599309,7.472000,15.188397

2.333495,-3.770824,11.254856,16.071175,0.216290,-0.142545,-1.093563,7.476000,15.188397

-3.239716,1.656290,11.135105,16.079998,0.314082,0.092742,-0.789263,7.488000,15.188397

-1.716483,5.133858,8.205996,16.074116,0.228014,-0.161996,-0.255539,7.480000,15.188397

0.197137,-1.220129,8.378437,16.082939,-0.295318,-0.497206,0.317355,7.464000,15.188397

-2.025441,1.222791,11.652429,16.085880,0.190976,-0.064205,0.517735,7.452000,15.188397

-5.883817,-3.962426,9.621452,16.074116,-0.116255,-0.276842,0.440195,7.440000,15.188397

-8.331528,1.615574,11.053674,16.091763,-0.068825,-0.440183,0.460179,7.444000,15.188397

-0.598009,1.879027,8.361671,16.079998,0.151806,-0.894502,0.515337,7.456000,15.188397

-0.564479,-0.051359,11.446457,16.056469,-0.329691,-0.543571,0.737300,7.452000,15.188397

1.420992,6.300233,8.146120,16.062351,0.106774,-0.227280,0.529193,7.456000,15.188397

0.302518,1.421578,13.089440,16.077057,0.559227,-0.434854,0.221962,7.468000,15.188397

0.149237,-4.494120,9.496911,16.062351,0.050817,-0.403944,0.342936,7.472000,15.188397

-0.528554,6.063126,8.158095,16.077057,0.073200,-0.222483,0.555573,7.468000,15.188397

-1.227899,6.915753,7.609635,16.062351,0.259990,-0.473225,0.977383,7.472000,15.188397

-5.330568,-0.602214,10.838122,16.071175,-0.021128,-0.407408,1.620624,7.472000,15.188397

0.108522,2.331685,5.650509,16.071175,0.141681,-0.529182,1.659527,7.476000,15.188397

0.443824,0.537816,9.748388,16.074116,0.214158,-0.484682,1.824467,7.476000,15.188397

-0.557294,-2.913408,10.912368,16.065292,-0.471716,-0.422597,2.028577,7.480000,15.188397

0.280963,1.649105,9.920830,16.065292,0.200569,-0.060741,2.062152,7.476000,15.188397

-0.449518,0.566556,9.463381,16.056469,0.165662,-0.287500,1.832195,7.472000,15.188397

2.170634,-3.344511,10.232183,16.065292,-0.042445,-0.397283,1.679512,7.476000,15.188397

1.952687,4.226146,8.984377,16.068233,0.106774,0.079952,1.674982,7.484000,15.188397

-0.588429,-1.363830,10.826147,16.062351,0.206697,0.170815,1.592112,7.484000,15.188397

-1.886530,0.391720,13.985178,16.053528,0.014312,0.311241,1.285414,7.496000,15.188397

2.702328,4.331527,10.280083,16.053528,0.691393,0.235299,0.736234,7.496000,15.188397

-3.299591,-2.202087,9.743598,16.065292,0.196305,0.480445,0.337607,7.500000,15.188397

3.154986,5.694293,7.291098,16.050587,-0.091474,0.501495,-0.062620,7.500000,15.188397

5.803878,3.124437,8.421547,16.082939,0.259191,0.492169,-0.297906,7.508000,15.188397

0.906063,-5.375487,11.123130,16.059410,0.034829,0.507091,-0.339475,7.492000,15.188397

1.435363,1.361702,10.486054,16.059410,-0.064828,0.675762,-0.357860,7.488000,15.188397

2.616107,-0.927936,11.027328,16.065292,0.278376,0.484975,-0.519603,7.476000,15.188397

-0.724945,-0.154345,9.190349,16.065292,0.017509,0.632328,-0.808715,7.472000,15.188397

-1.407526,1.737720,6.069638,16.056469,0.008183,0.421823,-1.162844,7.476000,15.188397

-0.720155,-2.887062,9.422666,16.065292,-0.221774,0.391446,-1.280886,7.472000,15.188397

3.930973,4.594979,10.897998,16.062351,-0.089076,0.541465,-1.414384,7.480000,15.188397

2.168238,1.850286,7.782077,16.059410,0.225883,0.340019,-1.433303,7.476000,15.188397

0.280963,0.133057,8.816726,16.059410,-0.157823,0.160690,-1.334978,7.476000,15.188397

-0.099845,0.554581,10.445339,16.059410,-0.143168,0.286993,-1.090099,7.476000,15.188397

1.028209,1.826336,10.481264,16.059410,0.120630,0.178010,-0.993373,7.484000,15.188397

-0.748895,3.754327,3.806345,16.065292,0.070802,0.218512,-0.744764,7.476000,15.188397

-1.771569,2.724468,6.488766,16.059410,-0.396840,-0.085255,-0.455386,7.464000,15.188397

-0.279472,-9.605092,25.972250,16.056469,-0.286525,-0.151338,-0.461248,7.452000,15.188397

3.028050,-3.519347,15.898799,16.059410,0.276777,0.226772,-1.231058,7.480000,15.188397

-4.370165,0.044442,13.815131,16.071175,0.165396,0.391713,-1.029079,7.492000,15.188397

1.203046,12.036304,6.268425,16.068233,0.548036,0.091676,-1.045334,7.496000,15.188397

1.052159,6.642721,3.904540,16.056469,-0.244956,-0.279506,-0.747961,7.484000,15.188397

1.140775,-0.286071,8.316167,16.053528,0.177387,-0.069267,-0.673618,7.488000,15.188397

-1.232689,-0.159135,8.076665,16.077057,0.288501,0.086613,-0.706127,7.488000,15.188397

-1.651818,-5.921552,9.683722,16.074116,-0.113058,-0.056744,-0.596078,7.492000,15.188397

-2.978658,-0.386662,10.862072,16.085880,-0.163419,0.032788,-0.537190,7.488000,15.188397

-2.214647,0.779713,6.704318,16.074116,-0.018996,0.052772,-0.174801,7.488000,15.188397

-1.556017,1.069510,11.156660,16.068233,-0.224172,-0.157733,0.126035,7.484000,15.188397

-0.964447,4.772211,10.996194,16.077057,0.364443,-0.132153,0.232354,7.484000,15.188397

-2.760712,-2.542179,9.676538,16.071175,0.136884,-0.258189,0.436464,7.488000,15.188397

-2.502050,-1.086008,7.726991,16.071175,0.089188,-0.242202,0.321352,7.476000,15.188397

-1.330885,-0.990207,12.890654,16.079998,-0.315569,-0.471093,0.354660,7.472000,15.188397

0.592316,2.755604,11.743440,16.074116,0.483286,-0.078594,0.204375,7.484000,15.188397

0.065411,-2.106286,8.617939,16.062351,0.122229,-0.129222,0.113512,7.488000,15.188397

0.266593,3.354359,8.423943,16.065292,-0.025924,0.062631,0.284581,7.488000,15.188397

0.264198,5.083563,6.119933,16.077057,0.727632,-0.037292,0.279784,7.504000,15.188397

-4.080368,-6.381395,8.538903,16.074116,-0.212182,-0.175586,0.348265,7.488000,7.714929

-4.348610,-4.510885,8.967612,16.065292,-0.245489,-0.240869,0.190786,7.472000,7.714929

-2.763107,4.218961,10.589040,16.065292,-0.211649,0.004543,0.030908,7.480000,7.714929

2.302360,-0.542338,9.583132,16.059410,-0.001143,-0.171856,-0.237153,7.468000,7.714929

4.139339,-5.899997,15.007852,16.053528,0.064673,-0.100710,-0.479634,7.480000,7.714929

0.225878,0.077972,13.388818,16.071175,-0.209783,0.641654,-0.587285,7.488000,7.714929

-1.120123,9.519139,5.458908,16.082939,0.400949,0.270739,-0.931554,7.488000,7.714929

1.363512,4.638089,5.525969,16.068233,0.170725,-0.326670,-1.013092,7.484000,7.714929

-0.502208,-2.906222,9.413086,16.062351,-0.196194,-0.077261,-0.843355,7.480000,7.714929

0.556390,3.569910,11.396162,16.050587,-0.116522,0.082083,-0.631251,7.484000,7.714929

-0.772846,0.537816,10.768666,16.071175,-0.100534,-0.097246,0.038369,7.488000,7.714929

-1.060248,0.849168,10.840517,16.059410,-0.077085,-0.115632,0.405022,7.488000,7.714929

-2.837352,0.794083,9.781919,16.077057,0.304489,-0.134817,0.672284,7.496000,7.714929

-5.021610,1.086275,9.096943,16.079998,-0.026191,-0.208361,1.014954,7.488000,7.714929

-0.406408,-0.844111,8.146120,16.071175,0.028967,-0.412471,1.111947,7.488000,7.714929

-1.069828,0.968919,10.749507,16.065292,-0.213514,-0.178517,1.131931,7.472000,7.714929

0.800682,-0.235776,10.126801,16.071175,0.104109,-0.064471,1.032807,7.480000,7.714929

0.568365,1.816756,9.901670,16.062351,-0.029388,-0.068468,0.832428,7.484000,7.714929

-0.310607,3.318433,8.002419,16.065292,0.082792,-0.045552,0.581686,7.480000,7.714929

1.114430,-1.675182,8.548483,16.056469,-0.115989,0.014135,0.179061,7.488000,7.714929

-1.618287,-1.857204,10.723162,16.071175,-0.173544,0.356007,-0.229692,7.484000,7.714929

-0.073500,3.354359,10.694421,16.065292,0.037760,0.388515,-0.649370,7.496000,7.714929

0.297728,2.690938,6.258844,16.062351,0.408676,0.294187,-1.089833,7.500000,7.714929

-3.725904,-3.521742,9.844189,16.056469,-0.655842,0.367731,-1.165242,7.496000,7.714929

4.462667,3.052586,9.736413,16.074116,-0.139970,0.256616,-1.325652,7.488000,7.714929

3.346588,-4.446220,7.918593,16.059410,-0.047774,0.169216,-1.362157,7.480000,7.714929

-2.305658,2.453831,9.805869,16.062351,-0.230834,0.523345,-1.198550,7.476000,7.714929

-0.485443,-0.075309,10.967453,16.050587,-0.172479,0.158558,-1.177499,7.484000,7.714929

0.144447,3.189102,9.779524,16.068233,-0.094405,-0.075663,-1.221998,7.488000,7.714929

-0.727340,-0.242961,9.329260,16.071175,0.454508,-0.322140,-1.169505,7.484000,7.714929

-1.812284,-0.748310,9.851375,16.065292,0.087589,-0.202765,-0.738902,7.488000,7.714929

-2.406249,-0.563893,9.161609,16.074116,-0.024326,-0.288033,-0.374115,7.496000,7.714929

1.140775,2.877750,10.133986,16.065292,0.092385,-0.502269,0.119374,7.488000,15.636714

1.059344,2.271810,10.457314,16.062351,0.212293,-0.289365,0.448455,7.496000,15.636714

-1.371600,0.477940,8.354486,16.071175,0.015111,-0.424728,0.711986,7.492000,15.636714

-2.343978,3.689661,12.073953,16.050587,0.073999,-0.501470,0.840688,7.484000,15.636714

-1.476981,-0.235776,8.423943,16.044704,0.554165,-0.677868,0.836957,7.492000,15.636714

-5.756881,-5.006654,11.451247,16.050587,-0.009670,-0.223816,1.123937,7.492000,15.636714

-0.997977,5.136253,8.340117,16.062351,0.021240,-0.130820,1.085833,7.496000,15.636714

-0.473468,3.596256,6.855204,16.053528,0.318079,-0.374633,1.121806,7.492000,15.636714

-1.350045,-0.329181,9.255014,16.050587,-0.008871,-0.366373,1.018418,7.492000,15.636714

0.386344,-0.554313,9.674143,16.047646,0.071867,-0.498006,0.948339,7.492000,15.636714

0.173187,-1.330299,9.736413,16.059410,0.016976,-0.211026,1.122605,7.496000,15.636714

-0.011229,2.164034,8.888577,16.068233,0.121696,-0.223016,1.241980,7.500000,15.636714

-1.088988,-0.604609,9.734018,16.065292,-0.084812,-0.333332,1.481530,7.496000,15.636714

0.223483,3.241793,8.984377,16.071175,0.084125,-0.088453,1.559071,7.496000,15.636714

0.867743,2.506522,9.015512,16.062351,0.250664,-0.181715,1.414382,7.504000,15.636714

1.289266,0.291129,7.305468,16.074116,0.158201,-0.204897,1.340838,7.508000,15.636714

0.752782,0.374954,10.038186,16.062351,0.191243,0.168151,0.916097,7.512000,15.636714

-0.097450,2.061048,10.193862,16.068233,0.079861,0.104466,0.447656,7.512000,15.636714

3.619620,-0.286071,9.657377,16.062351,-0.023793,0.124984,0.120440,7.508000,15.636714

4.290226,0.504285,10.565090,16.044704,0.075331,0.211850,0.002130,7.512000,15.636714

2.352655,0.094737,8.572433,16.077057,0.140348,0.316037,0.008525,7.500000,15.636714

-0.746500,2.120924,8.007209,16.074116,0.147276,0.400239,0.086599,7.500000,15.636714

-1.005162,1.658685,10.421389,16.053528,-0.018730,0.257149,0.076740,7.496000,15.636714

4.187240,0.935389,10.457314,16.047646,0.381497,-0.199834,-0.166540,7.496000,15.636714

1.452128,-2.496674,9.262199,16.065292,-0.159156,0.365066,-0.052761,7.508000,15.636714

-1.045878,2.765184,11.044094,16.068233,0.068137,0.393844,-0.142026,7.508000,15.636714

0.280963,3.088511,3.722519,16.074116,0.111037,0.318435,-0.179597,7.496000,15.636714

-2.499655,0.616851,3.708149,16.053528,-0.378987,0.245158,-0.150553,7.496000,15.636714

2.103573,-5.701210,15.654507,16.074116,-0.620136,0.188668,0.034372,7.488000,15.636714

3.210072,-9.827828,23.069487,16.068233,0.064673,0.114325,-0.217168,7.488000,15.636714

1.519188,0.370164,11.223721,16.082939,0.163797,0.914246,0.182792,7.508000,15.636714

-5.596415,9.782591,7.334208,16.047646,0.962119,0.312840,-0.164142,7.520000,15.636714

-3.443292,5.200919,2.692660,16.062351,-0.229768,-0.179050,-0.329082,7.508000,15.636714

4.017194,2.453831,8.292216,16.056469,-0.390978,0.184138,-0.354663,7.508000,16.279381

5.624252,2.532867,9.180769,16.074116,0.004186,0.366932,-0.366920,7.500000,16.279381

0.855768,-3.457077,12.699053,16.074116,-0.113857,0.229970,-0.500151,7.504000,16.279381

-1.287775,-0.496833,10.624966,16.056469,-0.008071,0.316304,-0.672286,7.500000,16.279381

-0.609984,-0.451327,8.021579,16.065292,0.378832,0.162821,-0.988844,7.508000,16.279381

1.715580,8.405455,5.466093,16.068233,0.668210,0.271272,-1.270761,7.512000,16.279381

3.317848,-4.951569,8.608358,16.062351,-0.386981,-0.414336,-1.169772,7.496000,16.279381

1.272501,0.966524,13.618740,16.077057,0.537644,0.211318,-1.245180,7.492000,16.279381

-2.535580,-5.088085,9.954360,16.065292,-0.238828,-0.019972,-0.941946,7.500000,16.279381

-0.329767,8.098892,8.744875,16.062351,-0.007538,-0.052747,-0.544384,7.484000,16.279381

-1.115333,2.868170,4.668551,16.071175,-0.001943,-0.223283,-0.096461,7.484000,16.279381

-4.271969,-4.410295,9.113708,16.068233,0.153938,-0.229944,0.124703,7.492000,16.279381

-4.401300,1.972432,4.541615,16.062351,0.327671,-0.023702,0.233153,7.504000,16.279381

-2.528395,15.645598,8.411967,16.050587,0.299693,-0.139081,0.402357,7.500000,16.279381

-0.583639,-17.683495,26.573400,16.082939,-1.497064,-1.374667,0.589680,7.488000,16.279381

-5.297038,0.008516,12.021262,16.077057,0.374302,-0.243267,0.995769,7.500000,16.279381

2.414926,1.682635,3.880590,16.074116,0.696189,-0.468695,0.725310,7.500000,16.279381

-3.369047,5.643998,8.790380,16.065292,-0.456794,-0.083390,1.287545,7.484000,16.279381

1.131195,-2.640375,14.358801,16.068233,-0.237229,-0.157999,1.678179,7.468000,16.279381

-1.776359,0.166588,11.913486,16.065292,0.218155,0.102601,1.609698,7.484000,16.279381

-0.679440,3.474110,7.374924,16.079998,0.223751,0.037051,1.148452,7.492000,16.279381

-0.485443,2.444251,5.741520,16.056469,-0.062696,-0.029831,0.638976,7.492000,16.279381

1.150355,1.886212,6.230104,16.071175,-0.182338,0.066362,0.330945,7.492000,16.279381

-0.188461,-3.912131,10.711186,16.065292,-0.001143,0.221443,-0.020785,7.492000,16.279381

1.653309,0.147428,9.348420,16.053528,-0.142368,0.161223,-0.328816,7.488000,16.279381

1.334772,1.325777,12.952925,16.062351,-0.185802,0.266209,-0.612599,7.488000,16.279381

1.938317,1.840706,8.953242,16.091763,-0.062430,0.343749,-0.713055,7.480000,16.279381

2.709513,-1.919474,9.789104,16.074116,-0.012868,0.156693,-0.722115,7.488000,16.279381

-0.566874,-3.105009,13.194821,16.082939,0.111037,0.199060,-0.644574,7.484000,16.279381

2.185004,5.265584,12.390095,16.056469,0.086789,0.540399,-0.641110,7.492000,16.279381

1.191071,6.063126,2.774091,16.065292,0.526186,0.281397,-0.629386,7.516000,16.279381

-4.909044,4.427328,6.788144,16.062351,-0.503958,0.081017,-0.586485,7.504000,16.279381

1.923947,-5.073715,3.827900,16.071175,-0.479976,-0.194505,-0.578758,7.480000,16.279381

2.786154,2.532867,10.390254,16.077057,-0.583897,0.045578,-0.514807,7.464000,16.279381

3.040026,-8.136945,17.113073,16.065292,0.024171,-0.016241,-0.624056,7.456000,16.279381

-0.186066,-0.487253,13.149316,16.068233,0.197105,0.032521,-0.969392,7.480000,16.279381

-1.896110,2.695728,5.796606,16.065292,0.084924,-0.046618,-1.029346,7.484000,16.279381

-0.930917,3.383099,7.468329,16.062351,-0.150629,-0.099911,-0.951805,7.484000,16.279381

0.235458,-0.568683,9.072993,16.062351,-0.190598,-0.230744,-0.766880,7.476000,16.279381

2.496356,1.268297,10.574670,16.059410,-0.004341,-0.119362,-0.583288,7.488000,16.279381

-0.174091,1.754486,9.465776,16.071175,0.097714,0.110595,-0.431671,7.508000,16.279381

-0.854276,-0.345946,10.059741,16.085880,0.633570,-0.112967,-0.262200,7.516000,16.279381

-1.766779,-1.828464,11.288386,16.077057,0.171258,-0.096180,-0.001867,7.528000,16.279381

-1.304540,9.875997,2.604045,16.065292,0.580544,0.354941,0.279518,7.524000,16.279381

-3.007399,1.883817,4.005131,16.071175,-0.247355,-0.323739,0.317089,7.516000,16.279381

-3.927086,-1.991325,14.037868,16.059410,0.674872,0.012004,0.334676,7.512000,16.279381

-4.935390,-6.834054,6.012157,16.065292,-0.234831,-0.248597,0.199313,7.504000,16.279381

2.510726,6.482255,6.917475,16.079998,-0.308108,-0.150272,0.211303,7.484000,16.279381

4.364471,-4.879718,13.022380,16.062351,-0.032319,-0.399947,0.079404,7.464000,16.279381

1.751505,-2.671510,11.388977,16.074116,-0.452797,0.099670,0.051426,7.464000,16.279381

-1.465006,0.700677,11.592553,16.082939,0.357249,0.328828,0.139092,7.484000,16.279381

-1.081803,2.068233,5.171505,16.071175,0.526186,-0.161730,0.464976,7.500000,16.279381

-0.686625,9.277242,4.414680,16.065292,0.095583,-0.044753,0.865202,7.508000,16.279381

-5.364098,-0.822555,12.373330,16.062351,-0.067759,0.042380,0.943276,7.500000,16.279381

-2.478099,-1.679972,12.428415,16.071175,-0.152227,-0.096447,0.657362,7.504000,16.279381

-3.040929,3.469320,10.126801,16.059410,0.174722,-0.075130,0.388767,7.508000,16.279381

-0.832721,1.864656,9.008327,16.065292,0.398284,-0.279506,-0.038638,7.508000,16.279381

-0.229176,-3.869020,11.068044,16.074116,-0.378188,-0.297626,-0.079141,7.500000,16.279381

3.859122,4.460858,14.274975,16.074116,-0.141036,0.235566,0.076740,7.496000,16.279381

3.147801,3.636971,7.080336,16.056469,0.235209,0.067161,0.201444,7.480000,16.279381

-5.526959,-3.358881,8.622729,16.059410,-0.279597,-0.052480,0.237683,7.468000,16.279381

-2.573900,3.148387,12.876284,16.068233,-0.433612,-0.082591,0.302700,7.464000,16.279381

1.636544,-1.268029,8.761641,16.088821,0.054814,-0.338395,0.287778,7.464000,16.279381

0.482145,1.124595,6.258844,16.062351,0.272780,-0.023169,0.546247,7.480000,16.279381

-5.316197,-0.094469,10.701606,16.074116,-0.460258,0.113526,0.747160,7.476000,16.279381

-2.300868,1.926927,8.086245,16.077057,0.138750,-0.033561,0.786063,7.484000,7.876774

-1.077013,-0.863271,8.749665,16.071175,0.271448,-0.170523,0.785797,7.496000,7.876774

-0.744105,3.862103,13.489408,16.085880,0.136085,0.014935,0.800452,7.500000,7.876774

2.302360,-3.282240,12.344589,16.071175,-0.061630,-0.075396,0.738100,7.508000,7.876774

2.594552,2.417906,7.920988,16.065292,0.198970,0.240628,0.642706,7.508000,7.876774

-0.638724,2.051468,7.585685,16.056469,-0.124782,0.328028,0.532391,7.496000,7.876774

-1.062643,3.524405,9.813054,16.050587,-0.213780,0.543863,0.155613,7.500000,7.876774

2.891534,2.530472,10.653706,16.062351,0.163797,0.223308,-0.393566,7.492000,7.876774

2.644847,-1.402150,9.154424,16.059410,-0.130111,0.257948,-0.750360,7.488000,7.876774

2.944225,0.137847,8.404782,16.082939,0.079861,0.434347,-1.210274,7.484000,7.876774

3.490289,0.336634,8.244316,16.082939,-0.001410,0.538534,-1.704029,7.484000,7.876774

0.680931,-0.484858,9.719648,16.077057,0.058811,0.556386,-1.953438,7.484000,7.876774

0.486935,-3.390016,12.552957,16.065292,-0.094938,0.346148,-2.042170,7.484000,7.876774

-2.011071,2.595137,9.408296,16.065292,0.135818,0.467654,-2.023518,7.496000,7.876774

-2.566715,3.323223,6.443261,16.059410,-0.053636,0.129514,-1.769312,7.500000,7.876774

-0.921337,4.080050,7.537785,16.065292,-0.006473,-0.047418,-1.426908,7.496000,7.876774

-0.861461,-2.602055,11.400951,16.077057,-0.085612,-0.099378,-1.371484,7.500000,7.876774

0.108522,0.307894,12.806828,16.071175,-0.061630,-0.185978,-1.132467,7.496000,7.876774

-0.245941,1.929322,10.830937,16.074116,0.385494,-0.094581,-0.846819,7.496000,7.876774

-4.746183,-2.649955,6.754613,16.077057,0.303690,-0.368238,-0.695735,7.484000,7.876774

0.173187,-2.621215,14.095348,16.062351,-0.176476,-0.582208,-0.159612,7.492000,7.876774

-0.777636,1.584439,10.651311,16.053528,0.195772,-0.122560,0.083401,7.484000,7.876774

-3.031349,0.952154,11.549443,16.059410,0.336198,-0.543571,0.405821,7.484000,7.876774

-3.460057,1.510194,7.422824,16.068233,0.292765,-0.686128,0.766345,7.492000,7.876774

-4.231254,-0.041779,8.759245,16.065292,0.073466,-0.633368,1.236385,7.492000,7.876774

-4.420460,1.512589,9.065807,16.091763,0.411874,-0.332799,1.625953,7.488000,7.876774

-4.983290,0.468360,5.576264,16.077057,0.030566,-0.609920,1.893747,7.492000,7.876774

-4.334239,5.826019,1.907094,16.088821,-0.026724,-0.461767,2.014721,7.488000,7.876774

-4.276759,-0.257331,5.169111,16.071175,-0.148763,-0.379963,2.054424,7.488000,7.876774

-2.657726,-3.957636,17.424425,16.071175,-0.230567,-0.736223,1.993671,7.480000,7.876774

3.705841,-1.224919,13.975597,16.065292,-0.037116,-0.622444,1.903607,7.484000,7.876774

7.051683,-8.148920,10.996194,16.068233,0.265319,-0.531846,1.815141,7.488000,7.876774

2.419716,4.218961,10.191467,16.050587,0.417203,0.009605,1.636345,7.488000,7.876774

2.841239,3.572305,11.367421,16.062351,0.461436,-0.148407,1.467407,7.512000,7.876774

2.958595,1.598809,1.933439,16.065292,0.407077,0.012803,0.993904,7.508000,7.876774

-3.493588,4.197406,5.355922,16.062351,0.008183,0.405835,0.510807,7.508000,7.876774

-0.801586,-0.207035,7.655141,16.053528,0.012180,0.233167,0.149751,7.508000,7.876774

-0.368087,-1.485976,12.811619,16.085880,-0.212448,0.264077,-0.072479,7.504000,7.876774

1.605409,2.640643,10.663286,16.068233,0.157935,0.162022,-0.216902,7.508000,7.876774

0.201927,-3.368461,5.569079,16.082939,0.124361,0.053572,-0.286182,7.500000,7.876774

1.562299,-2.214062,6.728268,16.071175,-0.222574,0.220910,-0.154550,7.480000,7.876774

2.520306,3.866893,6.728268,16.050587,0.004452,0.281131,0.141757,7.476000,7.876774

-1.503326,-6.939435,18.195621,16.065292,-0.151961,0.247556,0.482296,7.476000,7.876774

-0.375272,1.819151,14.248631,16.077057,0.086789,0.207321,0.679744,7.484000,7.876774

-2.506840,1.076695,8.986773,16.071175,0.360446,0.283795,0.792725,7.496000,7.876774

-2.372719,3.110067,7.075546,16.062351,0.136351,0.251287,0.737034,7.500000,7.876774

-3.898346,1.021610,16.777771,16.082939,-0.209517,0.135909,0.498283,7.492000,7.876774

3.205282,5.861944,11.551838,16.071175,0.381763,-0.103908,0.113245,7.500000,7.876774

5.976320,-3.313376,4.821833,16.065292,0.513929,-0.011445,0.075674,7.520000,7.876774

-2.542765,5.481136,4.366779,16.065292,0.098247,0.919575,-0.063153,7.512000,7.876774

0.870138,2.803504,9.379556,16.071175,-0.175143,0.298984,-0.058623,7.496000,7.876774

2.134708,-3.780405,13.436718,16.062351,0.119564,0.277400,-0.038638,7.488000,7.876774

2.276014,-4.587526,11.099179,16.062351,0.060676,0.210252,-0.044501,7.492000,7.876774

-0.054340,0.329449,6.340275,16.077057,0.143013,0.353609,-0.055958,7.488000,7.876774

-1.251849,1.764066,6.898314,16.071175,-0.089609,0.624334,-0.193720,7.468000,7.876774

-2.657726,-2.554155,7.671906,16.077057,-0.374724,0.283262,-0.501484,7.456000,7.876774

2.666403,-5.401833,14.399516,16.065292,-0.509820,0.391713,-0.554776,7.452000,7.876774

0.115707,2.053863,8.728109,16.068233,-0.387780,0.859088,-0.753824,7.460000,7.876774

-1.268615,-0.125605,8.823911,16.068233,0.078795,0.668567,-1.337376,7.468000,7.876774

1.035394,8.889249,9.384345,16.077057,0.587206,0.729854,-2.032044,7.504000,7.876774

0.398319,5.186549,10.993798,16.088821,-0.718993,0.416494,-1.718151,7.492000,7.876774

7.609723,-9.573956,4.776328,16.074116,-0.158623,-0.028232,-1.910004,7.484000,7.876774

-0.272286,1.799991,11.556628,16.077057,0.161932,0.584898,-1.857511,7.472000,7.876774

2.055673,-3.801960,16.655624,16.085880,-0.708601,0.354408,-1.794893,7.456000,7.876774

1.430573,3.248978,7.142607,16.062351,-0.032319,1.053339,-1.853248,7.456000,7.876774

-3.215765,-4.568366,13.865427,16.071175,-0.234564,0.145768,-2.092265,7.468000,7.876774

-3.337911,-0.338761,9.621452,16.059410,0.006584,0.333091,-2.033377,7.476000,7.659323

-3.642079,-4.453405,8.340117,16.071175,0.392955,0.170282,-2.079741,7.496000,7.659323

-5.268297,-0.317206,7.109076,16.071175,0.414805,0.103933,-1.951306,7.508000,7.659323

-2.633776,0.731812,11.513517,16.065292,0.080927,-0.061007,-1.874831,7.496000,7.659323

-0.696205,4.173456,10.672866,16.050587,0.239739,0.078886,-1.742133,7.512000,7.659323

0.539625,0.837193,5.669670,16.071175,0.496342,-0.035427,-1.417848,7.512000,7.659323

1.727555,-0.271701,12.723002,16.065292,0.055613,0.054904,-0.959533,7.524000,7.659323

-0.957262,2.643038,15.055752,16.059410,0.324207,0.202524,-0.785266,7.524000,7.659323

-0.564479,-1.129118,11.494358,16.074116,0.925613,-0.267249,-0.615263,7.532000,7.659323

-4.243229,0.063602,8.584409,16.079998,0.298627,-0.262453,-0.343738,7.536000,7.659323

-3.754645,-1.097983,9.734018,16.047646,0.250930,0.004809,-0.296574,7.524000,7.659323

-4.422855,0.870723,9.872930,16.047646,0.464100,-0.074330,-0.484697,7.516000,7.659323

-0.447123,-2.405663,9.710068,16.056469,0.187246,-0.483350,-0.610733,7.520000,7.659323

-0.205226,0.664752,7.906618,16.079998,0.396952,-0.168658,-0.598210,7.508000,7.659323

-0.588429,-1.097983,9.985496,16.065292,0.245068,-0.194238,-0.754889,7.504000,7.659323

-1.941615,-1.802118,8.397597,16.077057,0.306621,-0.166793,-0.816709,7.508000,7.659323

-3.184630,-1.265634,9.817844,16.068233,0.408942,-0.164395,-0.887854,7.508000,7.659323

-2.126032,-0.623769,10.766272,16.074116,0.193374,-0.234741,-0.838559,7.508000,7.659323

-1.491351,3.239398,9.070598,16.071175,0.556030,-0.061540,-0.788197,7.508000,7.659323

-2.439779,0.212093,9.810658,16.068233,-0.134375,-0.277908,-0.717052,7.508000,7.659323

0.094152,0.561766,8.502978,16.074116,0.267184,-0.030364,-0.628320,7.496000,7.659323

-3.898346,-1.289584,9.204719,16.077057,0.007117,-0.144676,-0.749560,7.500000,7.659323

-1.726063,-0.149555,8.819120,16.079998,0.366575,-0.267782,-0.695468,7.488000,7.659323

-0.648305,-2.266752,10.715977,16.082939,-0.001943,-0.300823,-0.452455,7.496000,7.659323

-2.990633,3.380704,10.493239,16.059410,0.095849,-0.298159,-0.248877,7.484000,7.659323

-1.599127,-2.185322,8.148515,16.074116,0.411341,-0.350652,-0.061554,7.484000,7.659323

-3.110384,-3.768430,9.954360,16.074116,0.032165,-0.464698,0.159610,7.480000,7.659323

-2.106871,1.845496,11.295571,16.056469,0.199237,-0.351451,0.275521,7.480000,7.659323

-1.781149,2.827454,8.977192,16.062351,0.324207,-0.377565,0.487891,7.480000,7.659323

-4.806058,1.766461,10.385464,16.068233,0.280508,-0.449776,0.592878,7.492000,7.659323

-2.672096,-1.459630,10.236973,16.056469,0.115301,-0.570750,0.660826,7.484000,7.659323

-2.444569,2.585557,10.795012,16.053528,0.105708,-0.521454,0.800985,7.476000,7.659323

-0.768055,-1.814093,8.383227,16.065292,0.290633,-0.540373,0.868400,7.484000,7.659323

-2.566715,0.791688,10.845307,16.068233,0.038826,-0.331200,0.926755,7.480000,2555.832887

-1.702113,-1.188993,7.070756,16.071175,0.096116,-0.394618,0.896911,7.472000,2555.832887

-1.958380,-0.532758,9.853769,16.059410,-0.144767,-0.151604,1.008826,7.480000,2555.832887

-0.423173,1.632339,10.763877,16.050587,0.076397,-0.148673,0.931285,7.476000,2555.832887

-1.271010,1.309012,8.833491,16.074116,0.132887,-0.254725,0.846017,7.468000,2555.832887

-2.382299,-0.460907,10.062136,16.068233,0.080128,-0.355182,0.747426,7.468000,2555.832887

-0.724945,1.996382,9.487331,16.071175,0.071335,-0.224349,0.562501,7.488000,2555.832887

-1.316515,-1.282399,9.355605,16.053528,-0.048574,-0.292030,0.233953,7.472000,2555.832887

0.884508,3.505245,10.102851,16.059410,0.055347,-0.112168,0.151349,7.484000,2555.832887

1.902391,0.437225,9.511281,16.074116,0.023904,-0.125491,0.139891,7.476000,2555.832887

2.364630,0.937784,10.148356,16.079998,0.014578,-0.105773,0.158277,7.484000,2555.832887

-0.830326,-0.518388,10.464499,16.074116,-0.025391,-0.110303,0.245144,7.480000,2555.832887

0.266593,1.047955,9.391530,16.050587,-0.058966,-0.110303,0.311227,7.480000,2555.832887

-1.582362,-0.300441,10.677656,16.074116,-0.075753,-0.050882,0.311760,7.472000,2555.832887

-0.959657,2.228699,10.883628,16.056469,-0.046442,-0.032496,0.271524,7.468000,2555.832887

1.162330,-1.145883,7.645561,16.065292,0.029766,-0.088453,0.288311,7.464000,2555.832887

-1.409921,1.855076,10.217813,16.062351,-0.085612,-0.020505,0.314158,7.476000,2555.832887

0.240248,4.108790,9.010722,16.071175,-0.010203,-0.111901,0.240348,7.472000,2555.832887

1.435363,0.818033,9.034673,16.068233,0.281307,-0.172122,0.256336,7.480000,2555.832887

-0.387247,0.092342,9.995075,16.071175,-0.203655,-0.120162,0.293107,7.472000,2555.832887

-0.289052,2.453831,9.870534,16.065292,0.076930,-0.071133,0.344535,7.476000,2555.832887

-0.164511,-0.233381,10.390254,16.074116,0.024171,-0.101243,0.322418,7.472000,2555.832887

-0.008834,-0.068124,9.858560,16.065292,-0.021394,-0.074597,0.245944,7.476000,2555.832887

-0.923732,0.511470,10.790222,16.068233,0.077996,-0.069267,0.199313,7.476000,2555.832887

0.573155,1.301827,8.577224,16.059410,-0.151428,-0.055411,0.224360,7.480000,2555.832887

0.803077,1.455108,10.351933,16.056469,0.014045,-0.075663,0.180927,7.480000,2555.832887

0.867743,2.226305,10.203442,16.062351,0.025769,-0.054079,0.160143,7.488000,2555.832887

0.565970,1.491034,9.504096,16.059410,0.129423,-0.063938,0.200911,7.476000,2555.832887

0.721647,2.044283,8.124565,16.059410,0.063874,-0.075663,0.309095,7.488000,2555.832887

-0.490233,-1.347065,9.762758,16.077057,-0.088010,-0.137748,0.409552,7.484000,2555.832887

0.604291,2.657408,9.130473,16.068233,0.132621,-0.126290,0.547846,7.476000,2555.832887

-0.523764,-0.688434,10.160332,16.068233,-0.021394,-0.151071,0.703193,7.476000,2555.832887

0.362394,2.324500,9.520862,16.062351,0.150740,-0.179583,0.793258,7.488000,2555.832887

-1.407526,-1.502741,11.314732,16.065292,-0.039780,-0.145476,0.909702,7.484000,2555.832887

1.337167,0.365374,9.216694,16.074116,0.231212,-0.107105,1.039735,7.484000,2555.832887

-1.697323,0.983289,9.856164,16.077057,0.156336,-0.007448,1.037870,7.484000,14.530287

-1.412316,0.509075,8.874207,16.053528,0.063607,-0.058609,0.923824,7.492000,14.530287

-0.681835,1.182076,9.420271,16.077057,0.008982,-0.050082,0.852412,7.492000,14.530287

-0.672255,0.777318,10.418994,16.077057,0.154204,0.021330,0.836957,7.500000,14.530287

-1.005162,-0.084889,9.643007,16.068233,0.098247,0.104466,0.846283,7.496000,14.530287

-1.335675,1.742511,8.661049,16.062351,0.118765,0.147633,0.850547,7.496000,14.530287

0.003141,0.801268,8.510163,16.062351,-0.032852,0.103667,0.744495,7.500000,14.530287

-1.036298,-1.955400,12.689472,16.059410,0.026835,0.094074,0.503613,7.496000,14.530287

2.434086,1.093460,10.828542,16.068233,-0.050439,0.179875,0.375444,7.500000,14.530287

0.879718,2.044283,9.405901,16.079998,0.283972,0.268873,0.184124,7.492000,14.530287

0.939593,-0.439352,9.693303,16.074116,0.041757,0.106598,0.110847,7.500000,14.530287

1.442548,0.271969,9.551997,16.088821,0.030832,0.176411,0.030375,7.500000,14.530287

0.642611,0.741392,8.862231,16.068233,0.145411,0.220644,0.008259,7.496000,14.530287

-0.087870,0.698282,8.922107,16.056469,0.109172,0.152163,0.036770,7.496000,14.530287

-0.075895,1.227581,8.924501,16.065292,0.132887,0.200126,0.013055,7.496000,14.530287

0.103732,-0.525573,10.804592,16.068233,0.066272,0.174279,-0.072479,7.496000,14.530287

2.010167,0.470755,10.735136,16.068233,0.105442,0.224374,-0.164675,7.508000,14.530287

0.194742,1.776041,10.100456,16.062351,0.057212,0.265942,-0.231291,7.504000,14.530287

0.302518,-0.659694,7.765312,16.053528,-0.099468,0.227039,-0.393033,7.484000,14.530287

0.130077,-0.276491,9.568762,16.071175,-0.188733,0.305112,-0.394899,7.484000,14.530287

1.088085,1.720955,9.228669,16.071175,-0.018730,0.308310,-0.426874,7.468000,14.530287

0.985099,-2.106286,8.522139,16.065292,-0.004607,0.183073,-0.493223,7.472000,14.530287

0.800682,-0.271701,9.506492,16.047646,-0.126114,0.191866,-0.500418,7.480000,14.530287

0.113312,1.749696,10.404624,16.077057,-0.040846,0.170815,-0.525465,7.476000,23.345824

-0.195646,1.455108,8.910131,16.085880,-0.012868,0.104999,-0.567033,7.476000,318.066738

-0.396827,0.619246,10.438154,16.077057,-0.075220,0.062898,-0.550513,7.476000,318.066738

-0.660280,0.762947,10.577065,16.068233,-0.062430,0.144968,-0.521468,7.476000,2065.115844

0.024696,0.269574,9.243039,16.085880,0.064406,-0.008248,-0.415416,7.464000,1990.230708

-0.104635,-1.131513,10.054951,16.074116,0.021772,-0.071399,-0.260069,7.456000,2163.577413

-0.023204,0.453990,10.021420,16.079998,0.020440,-0.224882,-0.149753,7.440000,2734.509461

-1.048273,-2.216457,9.559182,16.074116,0.028967,-0.203298,0.027178,7.444000,1216.881869

-2.212252,-1.002182,10.112432,16.071175,-0.072289,-0.189176,0.332277,7.444000,1465.833364

-1.007557,-0.662089,10.330379,16.077057,-0.204987,-0.266183,0.561968,7.428000,2012.440508

-1.632658,-0.386662,11.381792,16.062351,0.050018,-0.199568,0.749558,7.424000,2012.440508

-0.475863,-1.394965,10.282477,16.068233,0.076664,-0.280039,0.994437,7.416000,2012.440508

-0.150140,-1.325510,9.580737,16.074116,-0.113324,-0.349320,1.231855,7.416000,1263.037941

-1.153654,-0.796210,9.451406,16.082939,-0.087477,-0.270713,1.348299,7.412000,2571.928011

-0.703390,-2.022460,9.868139,16.056469,-0.035517,-0.354915,1.340305,7.408000,2333.362397

-0.645909,-1.033317,10.083691,16.068233,-0.075486,-0.184912,1.333643,7.396000,1870.650526

0.515675,-2.197297,9.195139,16.068233,-0.049107,-0.240869,1.275555,7.380000,2664.716887

-0.368087,-0.333971,9.676538,16.071175,-0.005407,-0.178251,1.200945,7.376000,2698.899876

0.594711,-1.483581,9.506492,16.079998,0.040158,-0.159598,1.076774,7.368000,2596.454731

1.100060,-1.723083,10.093271,16.074116,0.098514,-0.191574,0.983778,7.376000,2733.971071

1.535953,-1.457236,9.597502,16.074116,0.037760,-0.140413,0.868400,7.356000,2595.969311

0.963544,-0.080099,10.653706,16.074116,0.051616,0.043713,0.764480,7.372000,2471.669478

1.222206,1.409603,8.926897,16.077057,-0.011802,0.104200,0.550510,7.376000,2721.113067

0.132472,-2.283517,10.732741,16.068233,0.037494,0.048242,0.241947,7.352000,2614.051032

-0.313002,-2.467934,10.548325,16.056469,-0.092007,0.053039,0.176930,7.340000,2774.393535

0.752782,-0.513598,9.044252,16.059410,-0.079750,0.021863,0.109248,7.272000,2417.872020

-0.178881,-2.503859,11.743440,16.074116,0.126492,0.064497,0.040235,7.276000,2703.629274

0.249828,-2.115866,9.834609,16.062351,-0.065627,0.042114,0.007193,7.228000,2754.580321

-0.188461,1.141361,9.381950,16.079998,0.015910,0.044778,-0.026914,7.232000,2742.069378

0.058226,-0.872851,10.014235,16.074116,0.011647,0.000279,-0.107919,7.164000,2769.413481

2.070043,-2.039225,9.413086,16.068233,0.085191,-0.084989,-0.159612,7.180000,2776.057437

0.149237,-1.505136,9.571157,16.091763,0.050284,-0.022903,-0.203579,7.136000,2707.318972

1.095270,-1.172228,9.329260,16.085880,-0.091474,-0.036493,-0.240883,7.076000,2372.836481

3.020865,-0.985417,11.101574,16.074116,0.050018,0.154827,-0.346669,6.920000,494.527565

1.775455,-2.417639,10.059741,16.079998,-0.036316,0.136974,-0.375713,6.776000,2410.736076

-1.012347,-2.384108,10.038186,16.074116,-0.056567,0.168151,-0.441263,6.624000,2468.155006

-1.230294,-4.412690,9.851375,16.082939,-0.054702,0.034919,-0.434868,6.492000,1756.145109

-0.722550,-5.056950,9.755573,16.077057,-0.076819,-0.086055,-0.293110,6.348000,2484.494429

-0.818351,-3.378041,10.344748,16.097647,-0.131710,-0.104441,-0.087667,6.208000,2428.018794

-0.423173,-4.106127,10.229787,16.074116,-0.204454,-0.231010,0.096192,6.080000,2707.846979

2.398160,-4.659377,9.530441,16.077057,-0.013134,-0.375966,0.290176,5.796000,2660.632243

3.171751,-3.064294,9.556787,16.085880,0.123828,-0.244600,0.297637,5.656000,2439.964862

2.390975,2.693333,9.185558,16.094706,0.190710,-0.213690,0.380241,5.524000,2439.964862

1.665284,0.813243,10.083691,16.094706,-0.111192,-0.266716,0.456982,5.340000,2439.964862

3.061581,2.353240,8.287426,16.082939,-0.032586,-0.254992,0.491622,5.212000,2439.964862

2.041302,3.088511,9.489726,16.085880,0.066805,-0.099644,0.411150,5.084000,2439.964862

2.750228,0.056417,9.331655,16.079998,-0.053903,-0.215022,0.328813,4.956000,2439.964862

2.855609,-2.467934,9.290939,16.068233,-0.100534,-0.116964,0.227291,4.828000,2439.964862

1.698815,-1.394965,9.935200,16.106470,-0.038182,-0.075130,0.049028,4.708000,2439.964862

2.014957,-1.160253,9.875324,16.082939,0.014844,-0.014909,-0.177199,4.588000,2439.964862

1.377882,-1.011762,9.547207,16.088821,0.036961,0.033587,-0.348801,4.472000,2439.964862

1.492843,1.514984,9.889694,16.085880,0.014844,0.053305,-0.332280,4.348000,2439.964862

1.550323,0.856353,9.415481,16.091763,0.050018,0.002411,-0.098859,4.096000,2439.964862

1.100060,0.389324,9.585527,16.103529,0.006051,-0.005849,0.005861,3.896000,2439.964862

1.677259,-0.207035,9.307705,16.106470,0.006584,-0.037558,0.026378,3.788000,2439.964862

2.546652,-0.650114,9.674143,16.109411,0.015910,0.014935,0.034372,3.672000,2439.964862

1.825751,-0.190270,10.026211,16.112352,0.042823,0.034120,-0.002932,3.568000,2439.964862

2.498751,0.221673,9.386741,16.088821,0.029500,0.033854,-0.032510,3.448000,2439.964862

2.704723,0.810848,9.252620,16.094706,0.051083,0.078886,-0.014124,3.352000,2439.964862

2.702328,1.234766,9.238249,16.088821,0.039892,0.085814,0.020250,3.280000,2439.964862

2.230509,1.270692,9.125683,16.097647,0.027901,0.119654,0.031708,3.228000,2439.964862

2.108363,0.978499,9.300520,16.082939,0.027368,0.134843,0.022914,3.176000,2439.964862

2.177819,0.513866,9.520862,16.100588,0.011647,0.159624,0.002930,3.132000,2439.964862

1.471288,-0.056149,9.537626,16.079998,0.018841,0.175612,-0.057824,3.072000,2439.964862

1.150355,-0.022619,9.499307,16.097647,0.022039,0.181740,-0.102056,3.024000,2439.964862

0.716857,0.214488,9.638218,16.112352,0.031365,0.178276,-0.140694,2.984000,2439.964862

0.570760,0.638407,9.640613,16.112352,0.034296,0.166285,-0.155082,2.944000,2439.964862

0.393529,0.978499,9.492122,16.100588,0.022838,0.146567,-0.126837,2.904000,2439.964862

-0.035179,1.141361,9.432246,16.129999,0.008982,0.130579,-0.096994,2.860000,2439.964862

-0.130980,1.045560,9.683722,16.106470,0.007384,0.094074,-0.071413,2.816000,2481.830024

-0.487838,1.050350,9.631032,16.112352,0.022572,0.051707,-0.062620,2.772000,1620.284619

-0.435148,0.679122,9.621452,16.088821,-0.007805,0.012004,-0.022917,2.732000,1255.273876

-0.293842,0.626431,9.731624,16.091763,-0.011002,-0.003984,0.003996,2.688000,1411.019195

0.355209,0.351004,9.604687,16.106470,-0.013933,-0.057010,0.036770,2.632000,2714.729089

0.975519,0.427645,9.669353,16.100588,-0.005407,-0.054079,0.067680,2.588000,2714.729089

1.181490,0.705467,9.640613,16.100588,-0.006473,-0.052214,0.077006,2.544000,2769.413481

1.507213,0.889884,9.477751,16.121176,0.000189,-0.044220,0.067947,2.504000,1592.960856

1.626964,0.738997,9.587922,16.106470,-0.004607,-0.028765,0.049827,2.468000,2670.353772

1.579064,0.619246,9.559182,16.091763,-0.007538,-0.016774,0.013322,2.432000,2764.451438

1.380277,0.487520,9.532837,16.103529,-0.010736,-0.001053,-0.014124,2.392000,2375.678230

1.294056,0.413275,9.638218,16.109411,-0.008604,0.003477,-0.035707,2.352000,1499.388761

1.205441,0.465965,9.616662,16.106470,-0.003541,0.012270,-0.059156,2.312000,2651.487455

1.037789,0.518656,9.595107,16.097647,-0.003009,0.014135,-0.064752,2.276000,2673.438549

0.937198,0.600086,9.640613,16.088821,-0.004341,0.009339,-0.045033,2.224000,2618.981505

0.858163,0.626431,9.633428,16.118235,-0.005673,0.006141,-0.022118,2.188000,2777.167906

0.989889,0.585716,9.573552,16.106470,-0.004341,-0.000787,-0.001867,2.152000,2662.672870

0.848583,0.525841,9.647798,16.109411,-0.003275,0.001612,-0.001600,2.104000,2648.453106

0.743202,0.640802,9.690907,16.115294,-0.005140,-0.005316,-0.039704,2.064000,2702.576861

0.807867,0.626431,9.638218,16.115294,-0.009404,-0.006649,-0.071946,2.028000,2643.914613

1.078505,0.631221,9.640613,16.109411,-0.010736,-0.011712,-0.068482,1.996000,2703.102962

1.198256,0.487520,9.597502,16.121176,-0.009670,-0.008514,-0.046366,1.968000,2768.861319

1.181490,0.485125,9.659773,16.118235,0.000189,0.001878,-0.030378,1.920000,2767.205892

1.224601,0.523446,9.611873,16.112352,0.003387,0.006408,-0.005864,1.880000,2761.153297

0.738412,0.846773,9.614267,16.109411,0.000455,0.004543,0.017052,1.836000,2773.285397

0.759967,0.774923,9.707673,16.109411,-0.003541,-0.009313,0.021049,1.808000,2775.502520

0.963544,0.497100,9.631032,16.118235,-0.007005,-0.015442,0.012789,1.776000,2777.167906

1.195861,0.351004,9.604687,16.100588,-0.005407,-0.011445,0.007460,1.744000,2773.285397

1.250946,0.307894,9.544811,16.112352,-0.004607,0.001079,0.004262,1.712000,2777.167906

1.112035,0.406090,9.619058,16.118235,0.001255,0.007474,0.000798,1.680000,2769.413481

1.037789,0.614456,9.662168,16.115294,0.000189,0.007474,0.002130,1.644000,2749.671248

0.999469,0.688702,9.654983,16.115294,0.004186,0.005609,0.006127,1.620000,2770.518653

1.092875,0.676727,9.585527,16.115294,0.000189,0.008540,0.009058,1.596000,2776.057437

0.968334,0.662357,9.623847,16.106470,-0.002742,0.010138,0.000798,1.564000,2770.518653

0.987494,0.612061,9.609477,16.097647,-0.004874,0.011204,-0.008262,1.524000,2765.001905

0.925223,0.636012,9.590317,16.103529,-0.000077,0.006941,-0.015723,1.496000,2763.901183

0.939593,0.693492,9.631032,16.103529,-0.003808,0.007740,-0.023184,1.468000,2769.413481

0.762362,0.719837,9.690907,16.094706,0.001521,0.006674,-0.029579,1.436000,2773.839254

0.673746,0.638407,9.573552,16.112352,-0.010736,0.000013,-0.025582,1.412000,2767.205892

0.695301,0.523446,9.595107,16.088821,-0.007538,-0.010113,-0.026115,1.388000,2768.861319

1.032999,0.468360,9.678933,16.091763,-0.008604,-0.020505,-0.013058,1.360000,2774.948028

1.219811,0.489915,9.583132,16.088821,-0.001143,-0.012511,0.003996,1.340000,2769.966067

1.212626,0.513866,9.523256,16.091763,-0.003808,-0.005050,0.015187,1.312000,2756.220705

1.071320,0.509075,9.628637,16.100588,-0.002742,-0.000254,0.007993,1.292000,2755.673628

1.262921,0.607271,9.654983,16.115294,-0.002209,-0.000520,-0.007462,1.260000,2746.408068

1.246156,0.636012,9.518467,16.079998,-0.003808,0.011471,-0.007995,1.236000,2772.177894

1.224601,0.616851,9.643007,16.106470,-0.001676,0.016533,-0.007729,1.220000,2772.731539

1.267711,0.580926,9.628637,16.094706,-0.006206,0.023195,-0.014124,1.200000,2773.839254

1.143170,0.461175,9.614267,16.088821,0.000455,0.030922,-0.017854,1.180000,2777.167906

1.179096,0.643197,9.690907,16.106470,0.000722,0.035719,-0.009860,1.168000,2766.654578

0.783917,0.679122,9.501701,16.079998,0.006851,0.040782,0.003996,1.152000,2762.251688

0.580340,0.839588,9.801079,16.091763,-0.002476,0.024261,0.013055,1.136000,2766.654578

0.944383,0.578531,9.504096,16.106470,-0.009670,0.020530,0.012789,1.124000,2772.731539

0.839003,0.547396,9.592712,16.103529,0.004186,0.026126,0.001331,1.112000,2769.413481

0.743202,0.358189,9.549602,16.106470,-0.010469,0.005609,-0.016256,1.096000,2763.351139

0.894088,0.432435,9.472961,16.094706,-0.000344,0.012270,-0.016256,1.084000,2739.364716

0.800682,0.370164,9.705278,16.100588,-0.002742,0.013336,0.000798,1.076000,2754.580321

0.673746,0.477940,9.726833,16.097647,0.002587,0.007474,0.007460,1.068000,2773.839254

0.750387,0.556976,9.587922,16.106470,0.000455,-0.001320,0.010124,1.060000,2715.260063

0.817447,0.755763,9.657377,16.103529,0.004719,-0.000787,0.013322,1.048000,2688.969645

0.719252,0.971314,9.676538,16.091763,0.000988,-0.005050,0.012789,1.044000,2776.612565

0.518070,0.913834,9.654983,16.100588,-0.005673,-0.014376,0.003196,1.032000,2742.610946

0.589921,0.700677,9.621452,16.115294,-0.010469,-0.030364,-0.007462,1.028000,2766.654578

1.028209,0.571346,9.772339,16.100588,-0.008604,-0.031963,-0.000534,1.016000,2757.315283

0.961149,0.401300,9.743598,16.118235,-0.003541,-0.025568,0.024780,1.004000,2766.103475

1.344352,0.461175,9.602292,16.103529,-0.007005,-0.026101,0.017319,1.000000,2761.153297

1.509608,0.477940,9.381950,16.115294,0.000988,-0.005316,0.028244,0.996000,2769.966067

1.085690,0.499495,9.568762,16.088821,0.000722,0.004276,0.026378,0.988000,2769.966067

1.090480,0.533026,9.779524,16.097647,0.003387,0.001079,0.013055,0.988000,2776.057437

1.145565,0.693492,9.664562,16.100588,0.001255,0.009339,0.000798,0.980000,2745.322177

1.076110,0.765343,9.439431,16.100588,0.000455,0.012004,-0.001067,0.976000,2777.167906

0.958754,0.705467,9.722043,16.103529,-0.003009,0.016800,-0.009860,0.972000,2770.518653

0.850978,0.602481,9.681328,16.106470,-0.006473,0.014668,-0.023716,0.968000,2768.309369

0.891693,0.485125,9.621452,16.124117,-0.001943,0.012004,-0.023716,0.960000,2772.731539

0.666561,0.537816,9.614267,16.135881,0.000455,0.013869,-0.010926,0.956000,2773.839254

0.594711,0.671937,9.547207,16.094706,-0.001410,-0.002918,-0.000001,0.952000,2777.167906

0.819842,0.652777,9.695698,16.100588,-0.003275,-0.011179,0.027444,0.952000,2776.057437

0.982704,0.628826,9.604687,16.091763,-0.004074,-0.010646,0.035438,0.948000,2769.413481

1.018629,0.468360,9.472961,16.100588,-0.004074,-0.005583,0.030908,0.944000,2777.167906

0.937198,0.427645,9.604687,16.094706,-0.001410,-0.006915,0.016786,0.944000,2772.731539

1.023419,0.559371,9.786709,16.094706,0.001255,-0.008248,0.005594,0.940000,2767.205892

1.080899,0.724627,9.587922,16.109411,-0.003808,-0.002918,-0.006130,0.936000,2756.767782

1.066530,0.873118,9.571157,16.109411,-0.003541,0.002411,-0.006663,0.928000,2777.167906

0.922828,0.727022,9.695698,16.106470,-0.007005,0.007474,-0.013058,0.928000,2766.103475

0.949174,0.513866,9.734018,16.103529,-0.005673,0.000013,-0.032510,0.928000,2775.502520

1.044974,0.549791,9.623847,16.088821,-0.005673,0.001878,-0.026648,0.924000,2773.839254

0.987494,0.583321,9.410690,16.115294,-0.001676,0.007207,-0.004531,0.916000,2774.393535

0.795892,0.597691,9.832214,16.091763,-0.003275,-0.000787,0.013322,0.920000,2771.624673

1.205441,0.554581,9.554392,16.091763,-0.004874,-0.002918,0.009858,0.920000,2774.393535

1.042579,0.468360,9.310100,16.097647,-0.003808,0.011737,0.006394,0.920000,2777.167906

0.613871,0.461175,9.762758,16.115294,-0.000077,0.007474,-0.017055,0.916000,2772.177894

0.783917,0.542606,9.865745,16.103529,-0.004341,-0.006649,-0.024516,0.916000,2768.309369

