ax,ay,az,gx,gy,gz,temp,volt,vel

0.915643,2.324500,9.240644,17.615294,0.001255,-0.021837,0.009858,0.880000,0.000000

1.056949,2.604717,9.262199,17.618235,0.002321,-0.021837,0.012789,0.876000,0.000000

1.164725,2.643038,9.178373,17.627058,-0.001143,-0.023169,0.019983,0.880000,0.000000

1.387462,2.607113,9.235854,17.638823,-0.003808,-0.018107,0.015453,0.880000,0.000000

1.569484,2.508917,9.221484,17.641764,-0.001676,-0.005583,0.005861,0.880000,0.000000

1.579064,2.480176,9.216694,17.635881,-0.002209,0.004809,-0.012792,0.872000,0.000000

1.104850,2.645433,9.183164,17.641764,0.002321,0.014935,-0.046099,0.876000,0.000000

0.776732,2.798714,9.149633,17.653528,-0.001676,0.005342,-0.086868,0.880000,0.000000

0.525255,2.760394,9.185558,17.656469,-0.010203,-0.013577,-0.178531,0.876000,0.000000

0.484540,2.683753,9.111313,17.653528,-0.017930,-0.037825,-0.375181,0.880000,0.000000

1.188675,2.547237,9.317285,17.677057,-0.022194,-0.060741,-0.616595,0.876000,0.000000

1.761085,2.420301,9.262199,17.668234,-0.024326,-0.032762,-0.771677,0.876000,0.000000

1.514398,2.231094,9.355605,17.677057,-0.024059,-0.020238,-0.842556,0.876000,0.000000

0.941988,2.096973,9.401111,17.677057,-0.009937,-0.025035,-0.904108,0.876000,0.000000

0.637821,2.290970,9.393926,17.691763,-0.006739,-0.023436,-0.940880,0.876000,0.000000

0.736017,3.007081,8.639494,17.682940,0.010315,-0.011179,-0.919830,0.876000,0.000000

0.477355,2.839429,8.807145,17.697645,-0.004341,-0.003185,-0.820972,0.876000,0.000000

0.769547,2.777159,9.207114,17.715292,-0.021394,-0.009580,-0.643242,0.876000,0.000000

0.798287,2.913675,9.444221,17.709410,-0.011802,0.034653,-0.511343,0.876000,0.000000

0.793497,2.719678,8.819120,17.712351,-0.025924,0.027192,-0.421012,0.872000,0.000000

-0.205226,2.444251,9.362790,17.703527,-0.001943,0.006674,-0.393033,0.876000,0.000000

0.740807,3.174732,9.017907,17.732941,-0.005940,-0.020771,-0.403692,0.872000,0.000000

-0.550109,2.834639,9.513677,17.727058,0.022305,0.025860,-0.353864,0.876000,0.000000

-0.221991,2.056258,9.044252,17.735882,-0.047241,0.037051,-0.319223,0.876000,0.000000

-0.150140,2.544842,9.604687,17.735882,-0.023260,-0.004517,-0.314694,0.872000,0.000000

0.034276,3.059771,9.082573,17.735882,-0.014999,-0.000254,-0.337343,0.872000,0.000000

0.039066,2.425091,8.874207,17.747646,-0.033385,-0.002119,-0.305634,0.876000,0.000000

-0.243546,3.260953,8.811935,17.756470,-0.007538,-0.014376,-0.118311,0.876000,0.000000

0.261803,2.243070,9.911250,17.768234,-0.005140,0.012004,0.025313,0.876000,0.000000

-0.892597,3.969878,9.393926,17.762352,0.033497,0.040249,0.032774,0.872000,0.000000

-0.181276,3.047796,8.397597,17.794704,-0.027523,-0.041289,0.127901,0.872000,0.000000

0.609081,3.553145,9.523256,17.768234,0.015644,0.016800,0.175597,0.876000,0.000000

0.376764,2.640643,9.123288,17.774117,-0.006473,0.010405,0.131898,0.872000,0.000000

0.769547,2.781949,9.044252,17.785881,-0.040047,0.004010,0.168669,0.872000,0.000000

0.043856,3.035821,9.640613,17.797646,0.011647,0.060500,0.191585,0.876000,0.000000

-0.142955,1.773646,9.142448,17.777058,0.006318,0.022396,0.139891,0.872000,0.000000

-0.032785,1.946087,9.068203,17.818233,0.018575,0.000279,0.081803,0.872000,0.000000

0.436639,2.930440,9.353210,17.809410,0.008449,0.005609,0.069545,0.876000,0.000000

1.409017,3.035821,9.025092,17.809410,-0.014200,0.019465,0.105251,0.872000,0.000000

0.927618,2.932835,9.398716,17.806469,-0.022993,0.060233,0.117242,0.872000,0.000000

0.048646,2.338870,9.441826,17.824116,-0.010736,0.060766,0.063417,0.872000,0.000000

-0.653095,1.732930,9.185558,17.835880,-0.054702,0.026393,-0.025049,0.872000,0.000000

-0.411198,1.843101,9.508886,17.818233,-0.016065,-0.000787,-0.119110,0.872000,0.000000

-0.162116,1.891002,9.405901,17.841763,-0.004341,-0.015442,-0.171870,0.876000,0.000000

0.328863,1.926927,9.341235,17.832939,-0.006739,-0.027166,-0.166007,0.872000,0.000000

-0.030389,2.307735,9.463381,17.821175,0.005518,-0.013044,-0.144957,0.872000,0.000000

-0.042365,2.516102,9.235854,17.835880,-0.001410,-0.025035,-0.092197,0.876000,0.000000

-0.253126,2.738839,9.389135,17.841763,0.007916,-0.020771,-0.030378,0.876000,0.000000

0.053436,2.631063,9.171188,17.850588,0.028434,-0.057277,0.081003,0.876000,0.000000

0.362394,2.813084,9.322075,17.847647,0.010848,-0.039957,0.184924,0.872000,0.000000

0.628241,2.664593,8.744875,17.844706,0.013246,-0.040223,0.257934,0.872000,0.000000

0.522860,1.835916,9.185558,17.853529,-0.058166,-0.003718,0.272323,0.872000,0.000000

-2.657726,1.249136,9.417875,17.862352,0.040691,0.214249,0.324017,0.876000,0.000000

0.094152,1.507799,9.614267,17.882940,-0.070424,-0.058875,0.223827,0.872000,0.000000

0.228273,2.877750,9.396320,17.879999,0.064140,0.033321,0.114311,0.876000,0.000000

0.369579,3.016661,9.575947,17.900587,0.033497,-0.020238,0.044498,0.872000,0.000000

1.152750,2.221514,8.941267,17.891764,-0.000344,0.018665,0.016253,0.876000,0.000000

0.587526,2.585557,9.554392,17.906469,-0.005140,0.034120,-0.011459,0.876000,0.000000

0.177977,2.259835,9.647798,17.888823,-0.032852,0.014402,-0.007462,0.876000,0.000000

1.296451,2.341265,8.167675,17.882940,-0.036583,0.057835,0.017052,0.872000,0.000000

-0.277076,3.033426,9.652588,17.894705,0.004719,0.063164,-0.108984,0.872000,0.000000

-1.917665,2.880145,8.165280,17.897646,-0.061097,0.238763,-0.021318,0.876000,0.000000

-0.964447,4.245306,11.355447,17.918234,-0.146898,-0.067669,-0.021585,0.876000,0.000000

-0.217201,4.360267,9.472961,17.909410,0.073733,0.122852,0.000532,0.872000,0.000000

0.331258,3.399864,9.437036,17.906469,0.061475,0.095939,0.136161,0.876000,0.000000

0.925223,2.899305,8.938871,17.900587,-0.023793,0.042913,0.266728,0.876000,0.000000

-1.156049,3.428604,9.082573,17.903528,0.081727,0.118855,0.460179,0.872000,0.000000

-1.852999,2.374796,8.661049,17.935881,0.049218,0.016001,0.471371,0.872000,0.000000

-1.156049,2.746024,8.900552,17.938822,-0.013401,0.009339,0.443925,0.948000,0.000000

-0.535739,5.358990,9.216694,17.921175,0.008716,-0.048217,0.478299,1.084000,0.000000

-1.498536,4.491993,8.900552,17.915293,0.005252,0.033854,0.638976,1.452000,0.000000

0.307308,4.017779,8.821516,17.938822,0.069469,-0.037558,0.921959,1.476000,0.000000

-1.266220,4.190221,9.650192,17.938822,0.020174,-0.015708,1.103686,2.792000,0.000000

-0.629144,3.991434,8.766430,17.921175,0.068403,-0.078327,1.141524,4.080000,0.000000

0.860558,4.281231,8.280241,17.938822,0.071601,0.013602,1.188954,4.252000,0.000000

1.152750,3.294483,8.771220,17.938822,0.014045,-0.008514,1.182026,4.756000,0.000000

2.151473,5.212894,8.948452,17.938822,0.040158,0.008540,1.125536,5.276000,0.000000

1.401832,3.131622,8.732900,17.924116,0.000455,0.030123,1.100489,5.356000,0.000000

-0.030389,4.453673,9.307705,17.932940,0.066805,0.148699,1.033607,5.900000,0.000000

-0.044760,4.245306,9.255014,17.918234,-0.047241,0.096472,0.862804,6.368000,0.000000

0.173187,4.626114,10.505215,17.921175,0.038560,0.081017,0.824167,6.808000,0.000000

1.006654,4.305182,8.273056,17.924116,-0.007272,0.068227,0.864936,7.068000,0.000000

0.043856,3.924373,8.093430,17.929998,0.020174,0.142304,1.019484,7.152000,0.000000

-0.111820,3.850127,8.129354,17.921175,0.058278,0.134043,1.124204,7.196000,0.000000

-0.775241,0.525841,9.995075,17.935881,0.054014,0.108197,1.078106,7.228000,0.000000

0.403109,2.798714,8.579618,17.906469,0.044955,0.184938,1.011757,7.252000,0.000000

-0.681835,3.900423,9.523256,17.909410,0.176321,0.280331,0.991239,7.256000,0.000000

0.805472,2.664593,8.550879,17.921175,0.081993,0.300849,0.969389,7.256000,0.000000

-0.368087,-0.391452,9.829819,17.929998,-0.026457,0.234500,1.005095,7.236000,0.000000

2.242484,3.057376,9.726833,17.897646,0.113169,0.291256,0.968057,7.248000,0.000000

-0.413593,1.253927,14.203125,17.900587,0.154204,0.358138,0.856942,7.268000,0.000000

1.535953,2.592742,7.597661,17.915293,-0.078684,0.142304,0.105251,7.268000,0.000000

2.383790,3.407049,11.185400,17.912352,0.086523,0.308310,-0.501484,7.292000,0.000000

1.991007,3.572305,6.486372,17.918234,0.115034,0.348812,-0.817242,7.312000,0.000000

2.817289,4.123160,7.913803,17.918234,0.058811,0.356540,-1.045334,7.296000,0.000000

2.664008,-1.529086,7.949728,17.918234,-0.107995,0.257149,-1.089833,7.280000,0.000000

-0.753685,2.621483,10.277688,17.909410,-0.079217,0.405302,-0.653900,7.272000,0.000000

-0.557294,1.967642,9.923224,17.918234,-0.076552,0.216647,-0.531594,7.248000,0.000000

-0.993187,2.065838,10.866862,17.915293,-0.071756,0.203324,-0.349600,7.248000,0.000000

-0.451913,1.634735,7.806027,17.921175,-0.024326,0.141504,0.054091,7.204000,0.000000

2.201769,2.595137,10.459709,17.921175,0.124361,0.166285,0.529193,7.224000,0.000000

0.963544,3.660921,7.521020,17.900587,0.238140,0.366399,1.010957,7.220000,0.000000

-6.180799,4.894356,10.996194,17.918234,0.477423,0.391713,1.481530,7.168000,0.000000

-0.020809,-5.533559,3.930886,17.903528,-0.111459,1.190567,1.119408,7.236000,2294.421618

-2.169142,3.215447,12.713423,17.927057,-0.276133,-0.667209,0.954201,7.236000,2294.421618

2.884349,4.226146,9.108918,17.935881,0.175788,0.300316,1.146587,7.228000,2294.421618

0.834213,3.797437,8.958032,17.912352,0.085990,0.324031,1.055990,7.248000,2294.421618

1.133590,3.241793,8.423943,17.915293,0.001521,0.308043,1.043999,7.268000,2294.421618

-0.923732,3.469320,10.270503,17.924116,-0.025658,0.397575,0.440994,7.288000,2294.421618

2.110758,4.628509,7.367738,17.935881,0.054814,0.388515,-0.664026,7.316000,2294.421618

2.618502,3.330408,7.808422,17.947645,-0.093073,0.384252,-1.709625,7.316000,2294.421618

2.522702,-0.080099,11.333891,17.947645,-0.182871,0.168151,-2.083472,7.316000,2294.421618

1.964662,6.161322,9.278965,17.935881,0.189377,0.282197,-2.145025,7.320000,2294.421618

-1.342860,2.171219,10.363909,17.938822,-0.045643,0.077820,-2.320090,7.316000,2294.421618

-1.606312,2.377191,6.304350,17.950586,0.091852,-0.015442,-2.188724,7.324000,2294.421618

-4.255204,1.974827,8.668234,17.953527,-0.188733,0.086347,-2.042436,7.328000,2294.421618

-1.488956,0.607271,11.468013,17.950586,-0.420022,-0.028499,-1.706161,7.336000,2294.421618

-1.764384,6.120606,11.911091,17.950586,0.095316,0.147100,-1.298206,7.348000,2294.421618

-0.880621,3.318433,8.371252,17.938822,0.078263,-0.079926,-0.873465,7.348000,2294.421618

-4.554582,1.926927,10.893208,17.938822,-0.021927,-0.143078,-0.516939,7.360000,2294.421618

-5.445529,2.784344,6.838439,17.944704,0.131289,-0.067136,-0.167073,7.360000,2294.421618

-2.844537,0.592901,9.654983,17.941763,0.002321,-0.295228,0.074342,7.364000,2294.421618

-4.145033,0.607271,6.275609,17.912352,0.094783,-0.240070,0.250740,7.376000,2294.421618

-2.576295,1.160521,10.090877,17.932940,0.164863,-0.142545,0.278452,7.388000,2294.421618

-3.948641,2.425091,9.932805,17.924116,-0.044843,-0.262453,0.234752,7.384000,2294.421618

0.170792,0.513866,11.151870,17.932940,0.180584,-0.307485,0.106317,7.384000,2294.421618

-1.117728,3.684871,8.783195,17.938822,0.166995,-0.274977,-0.152418,7.368000,2294.421618

2.553837,1.929322,9.659773,17.929998,0.119564,-0.262186,-0.176666,7.376000,2294.421618

0.731227,2.705308,7.782077,17.924116,0.103044,-0.167059,-0.090066,7.376000,2294.421618

0.743202,4.262071,7.600055,17.935881,0.096915,-0.108704,-0.042635,7.372000,2294.421618

-0.974027,1.797596,8.981982,17.941763,-0.070956,-0.027966,-0.051429,7.372000,2294.421618

1.801800,2.458621,9.700488,17.929998,-0.139704,-0.094315,-0.048498,7.368000,2294.421618

1.430573,4.223751,11.894326,17.950586,0.488615,-0.349053,-0.229692,7.376000,2294.421618

0.415084,-1.387780,10.624966,17.927057,-0.094938,-0.175586,-0.454053,7.356000,2294.421618

-3.948641,1.153336,9.487331,17.935881,0.336198,0.097272,-0.498286,7.368000,2294.421618

-0.250731,1.883817,8.158095,17.918234,-0.159955,-0.193705,-0.555842,7.364000,2294.421618

-1.750014,5.267980,8.107800,17.924116,0.001788,0.134310,-0.562237,7.360000,2294.421618

-0.087870,3.591465,11.602134,17.927057,-0.022727,-0.083656,-0.591282,7.380000,2294.421618

-0.193251,5.869129,8.735295,17.929998,0.128091,-0.272578,-0.553177,7.392000,2294.421618

-0.856671,3.414234,10.066926,17.927057,0.111837,-0.036493,-0.488427,7.396000,2294.421618

-2.434989,2.755604,7.897038,17.959410,-0.038182,-0.135350,-0.353597,7.400000,2294.421618

-1.409921,4.456068,9.884905,17.941763,0.185913,0.023728,-0.112981,7.404000,11.470374

-0.751290,2.803504,9.520862,17.947645,0.213093,-0.218486,0.051426,7.404000,11.470374

-1.996701,2.027518,7.286308,17.938822,0.088122,-0.147607,0.153748,7.416000,11.470374

-1.824259,4.932677,9.595107,17.944704,0.048419,-0.075396,0.212369,7.408000,11.470374

0.173187,1.629945,9.805869,17.932940,-0.034718,-0.067136,0.253138,7.420000,11.470374

-1.244664,4.087235,6.828859,17.944704,0.214958,-0.050082,0.204109,7.416000,11.470374

-0.629144,-0.911171,7.829977,17.947645,-0.185269,-0.139880,0.073542,7.428000,11.470374

-1.912875,4.092025,8.431128,17.915293,-0.061630,-0.019439,-0.006130,7.424000,11.470374

2.079623,0.604876,10.062136,17.947645,-0.053903,-0.128689,-0.079674,7.428000,11.470374

0.403109,5.418866,10.850098,17.935881,0.157135,0.099670,-0.030378,7.428000,11.470374

-0.902177,7.442657,9.147239,17.941763,0.433724,0.305112,-0.061554,7.432000,11.470374

-1.553622,-1.948215,9.460986,17.944704,-0.255082,-0.331200,-0.086602,7.420000,11.470374

-1.797914,5.287139,12.435600,17.950586,0.206697,0.222509,0.269126,7.440000,11.470374

-0.090265,-0.705199,9.460986,17.959410,-0.005140,0.029857,0.292042,7.440000,11.470374

-2.866093,8.273729,7.257567,17.959410,0.419068,0.249688,0.264063,7.440000,11.470374

-2.255363,-2.843952,11.252460,17.935881,-0.411496,-0.302156,0.240081,7.432000,11.470374

-3.069669,4.753050,8.380832,17.950586,0.470229,0.381321,0.358391,7.428000,11.470374

-3.895951,-0.477673,10.845307,17.929998,-0.287058,-0.350119,0.231555,7.424000,11.470374

0.656981,2.760394,7.839557,17.927057,0.222419,0.243293,0.310694,7.428000,11.470374

-0.945287,1.725745,10.979428,17.953527,-0.268938,0.091676,0.271257,7.424000,11.470374

-2.284103,8.074943,9.458591,17.935881,0.039625,0.354408,0.235818,7.428000,11.470374

0.395924,0.882698,9.523256,17.941763,-0.019263,-0.124958,0.121506,7.436000,11.470374

-2.755922,4.185431,9.080178,17.950586,-0.016332,0.096472,0.193450,7.428000,11.470374

-1.194369,2.777159,7.863508,17.947645,-0.002476,0.117523,0.201444,7.428000,11.470374

-3.603759,3.347173,9.223879,17.932940,0.085723,0.132711,0.018385,7.444000,11.470374

-2.684071,0.736602,8.962822,17.953527,-0.144500,-0.062339,-0.106586,7.448000,11.470374

-2.839747,6.216407,10.251343,17.947645,0.032165,0.148965,-0.190522,7.444000,11.470374

-0.964447,1.840706,8.189230,17.965292,-0.177808,-0.129754,-0.310430,7.444000,11.470374

-0.444728,4.460858,11.036909,17.935881,0.073999,0.024794,-0.345870,7.460000,11.470374

1.344352,1.186866,8.998747,17.947645,0.148342,-0.242202,-0.421012,7.452000,11.470374

-1.108148,1.249136,8.586803,17.932940,0.024437,-0.052480,-0.320556,7.448000,11.470374

-2.030231,-0.927936,8.965217,17.956469,-0.038448,-0.127090,-0.133499,7.448000,11.470374

-0.324977,3.203472,11.000983,17.924116,-0.089342,0.013069,-0.028513,7.460000,11.470374

-2.300868,3.555540,9.456196,17.935881,0.209629,0.071425,-0.005064,7.456000,15.580028

-2.952313,0.147428,6.989326,17.944704,0.021772,-0.033295,0.069279,7.452000,15.580028

-2.815797,1.929322,9.643007,17.941763,-0.219909,0.038650,0.127101,7.444000,15.580028

-2.542765,3.476505,10.704001,17.947645,0.112103,0.115658,0.056755,7.452000,15.580028

-0.784821,2.077813,10.112432,17.947645,-0.013667,-0.100444,-0.009594,7.452000,15.580028

-0.085475,2.547237,8.491003,17.938822,0.040691,-0.097246,0.023714,7.456000,15.580028

-0.279472,3.047796,9.944780,17.929998,0.012979,-0.035960,-0.067416,7.452000,15.580028

0.776732,0.365374,8.093430,17.959410,-0.185802,-0.038624,-0.147355,7.460000,15.580028

-1.656608,2.647828,10.236973,17.956469,0.054014,0.269140,-0.193720,7.464000,15.580028

0.400714,0.274364,10.260922,17.959410,0.006051,-0.056211,-0.834562,7.464000,15.580028

-1.556017,4.935072,9.460986,17.953527,-0.004074,0.100469,-0.419946,7.476000,15.580028

-2.051786,1.392838,8.289822,17.965292,0.038826,-0.081525,-0.420479,7.476000,15.580028

-3.040929,4.460858,8.593988,17.959410,0.084391,0.025593,0.329346,7.488000,17.245163

-1.268615,4.171061,8.744875,17.950586,0.126759,-0.147341,0.092461,7.488000,17.245163

-2.382299,1.821546,11.245275,17.927057,-0.091741,-0.139347,-0.376246,7.484000,17.245163

-1.036298,0.952154,9.240644,17.938822,0.147809,-0.244333,0.739699,7.480000,17.245163

-1.896110,2.278995,3.784789,17.935881,-0.034984,0.143636,0.808712,7.480000,17.616347

2.182609,2.034703,8.074269,17.962351,0.152339,0.177477,-0.803919,7.476000,17.616347

0.213903,0.604876,13.230747,17.944704,-0.184469,-0.300823,-1.126072,7.472000,17.616347

-0.006439,3.771092,7.243197,17.947645,0.282106,-0.035960,-0.675750,7.480000,17.616347

-2.631381,-0.671669,10.306428,17.953527,0.030566,-0.237938,-0.316026,7.472000,17.616347

-4.885094,4.721915,8.196416,17.935881,-0.009937,-0.024502,0.075408,7.480000,17.616347

-1.630263,1.974827,12.526611,17.953527,0.073999,-0.208094,0.358124,7.484000,17.616347

-0.703390,2.420301,5.523573,17.953527,0.272514,-0.196903,0.456449,7.476000,17.616347

-4.214489,0.089947,13.079861,17.929998,-0.145299,-0.442848,0.411150,7.476000,17.616347

-1.948800,3.442974,8.620334,17.953527,0.413472,-0.158532,0.370115,7.476000,17.616347

-0.712970,-3.481027,8.814330,17.941763,0.049751,-0.294695,0.331478,7.472000,17.616347

-1.824259,2.494547,7.688671,17.935881,-0.089609,-0.172655,0.080204,7.464000,17.616347

-1.292565,2.063443,8.002419,17.941763,0.053482,-0.071666,0.155613,7.468000,17.616347

-0.130980,3.785462,8.285031,17.935881,0.072400,-0.060474,0.197714,7.468000,17.616347

-1.189579,1.582044,8.914922,17.935881,0.102244,-0.083656,0.091662,7.472000,17.616347

-2.655331,1.649105,8.349697,17.938822,-0.010469,-0.144410,-0.031710,7.476000,17.616347

-1.316515,0.530631,11.144685,17.935881,-0.155159,-0.187310,-0.071147,7.472000,17.616347

-0.835116,4.034544,18.626726,17.953527,0.275445,0.092475,0.016253,7.484000,17.616347

2.113153,-0.652509,18.550085,17.941763,0.501405,-0.276309,-0.022118,7.488000,16.099954

-1.493746,-1.308744,14.751584,17.941763,0.644495,-0.024768,0.067680,7.500000,16.099954

-1.239874,7.672579,2.285507,17.965292,0.706315,0.093008,0.099656,7.504000,16.099954

-1.354835,2.894515,2.441183,17.944704,0.220287,-0.268048,0.351463,7.488000,16.099954

-1.809889,2.147269,9.851375,17.953527,0.144878,-0.099378,0.497751,7.480000,16.099954

0.532440,0.746182,6.598937,17.944704,0.324474,-0.138814,0.503613,7.480000,16.099954

1.614989,3.021451,6.448051,17.944704,-0.179140,-0.123892,0.603803,7.472000,16.099954

-0.375272,3.222633,6.757009,17.924116,0.178452,0.031455,0.807380,7.464000,16.099954

-1.326095,7.483373,7.786867,17.921175,0.193374,-0.053013,0.808446,7.472000,16.099954

1.368302,-2.235617,10.007051,17.924116,0.012713,-0.227280,0.847083,7.460000,16.099954

0.858163,7.696529,10.054951,17.953527,0.021240,0.102334,0.869199,7.472000,16.099954

-0.126190,4.324342,7.619215,17.938822,0.119564,0.145768,0.807114,7.472000,16.099954

-1.395551,4.151900,8.265871,17.953527,-0.122650,0.073024,0.779934,7.476000,16.099954

0.443824,6.079891,11.381792,17.941763,0.114235,0.203057,0.777270,7.480000,16.099954

2.110758,2.547237,9.391530,17.950586,0.016710,0.167085,0.664556,7.484000,16.099954

1.452128,3.665711,8.383227,17.947645,0.186713,0.180408,0.494020,7.476000,16.099954

-0.468678,0.801268,9.149633,17.929998,-0.187667,0.178010,0.398094,7.472000,16.099954

-1.429081,5.969720,9.604687,17.938822,0.094250,0.301115,0.366118,7.468000,16.099954

-1.273405,-1.847624,12.093113,17.935881,-0.627064,0.098870,0.233420,7.456000,16.099954

0.166002,2.077813,11.173425,17.935881,-0.254549,0.194797,0.202244,7.432000,16.099954

3.418439,-1.526691,9.449011,17.924116,-0.164218,0.014135,0.318954,7.408000,16.099954

-1.431476,1.613179,10.143566,17.935881,-0.442938,0.260347,0.361588,7.392000,16.099954

-2.145192,3.536380,10.653706,17.944704,-0.220442,0.331492,0.318688,7.392000,16.099954

-2.320028,2.844219,7.271938,17.953527,-0.089076,0.146301,0.348798,7.388000,16.099954

-2.849328,0.643197,7.255173,17.938822,-0.379786,0.081817,0.385303,7.408000,16.099954

-2.133217,4.374637,8.744875,17.944704,-0.243624,0.156160,0.361322,7.416000,16.099954

-0.871041,1.982013,9.432246,17.950586,-0.114923,0.131912,0.353861,7.428000,16.099954

0.633031,3.239398,8.301796,17.929998,0.154204,0.197195,0.209971,7.440000,16.099954

0.783917,7.500138,5.614584,17.941763,-0.097603,0.209452,0.094859,7.444000,16.099954

1.155145,-0.573473,6.031318,17.950586,-0.274800,0.050641,0.049827,7.444000,16.099954

-0.157326,5.361385,9.389135,17.947645,0.030832,0.363468,-0.001334,7.460000,16.099954

0.685721,2.714888,11.659614,17.929998,-0.056834,0.245425,0.072210,7.460000,16.099954

0.522860,2.501732,9.769943,17.941763,0.055080,0.151630,0.006394,7.456000,16.099954

-1.663793,3.522010,9.307705,17.938822,0.022305,0.154561,-0.135098,7.460000,16.099954

-1.845814,2.389166,9.580737,17.924116,-0.094139,0.085547,-0.258470,7.464000,16.099954

-1.069828,1.934112,9.283754,17.924116,-0.093073,0.113259,-0.349334,7.460000,16.099954

-0.748895,3.385494,9.334050,17.938822,-0.027257,0.113526,-0.428739,7.460000,16.099954

-1.311725,2.678963,7.887458,17.938822,-0.028056,0.064230,-0.523867,7.468000,16.099954

-1.460216,2.319710,7.142607,17.932940,-0.244157,0.018932,-0.600608,7.460000,16.099954

-0.042365,1.433553,9.698093,17.950586,0.048419,0.005342,-0.621125,7.456000,16.099954

-1.486561,1.378468,11.573393,17.938822,-0.138105,-0.000254,-0.630718,7.456000,16.099954

-0.267496,2.185589,9.808264,17.938822,0.127025,-0.000787,-0.553177,7.460000,16.099954

-0.916547,1.311407,8.359277,17.929998,-0.076552,-0.117231,-0.497753,7.468000,16.099954

-1.323700,2.726864,9.714858,17.935881,-0.076552,-0.100177,-0.328283,7.472000,16.099954

-1.433871,1.050350,11.465617,17.941763,0.113969,-0.189176,-0.233955,7.456000,16.099954

-1.072223,1.723350,9.384345,17.929998,0.016177,-0.131353,-0.116978,7.452000,16.099954

-0.801586,1.335357,9.875324,17.932940,-0.011269,-0.130021,0.074075,7.464000,16.099954

-1.299750,4.503968,7.985653,17.924116,-0.106396,-0.100444,0.271790,7.452000,16.099954

0.913248,1.637130,8.356882,17.950586,0.149142,-0.107638,0.387968,7.460000,16.099954

-1.486561,1.421578,9.537626,17.935881,-0.022727,-0.151604,0.448988,7.460000,16.099954

-1.079408,2.180799,10.694421,17.941763,0.042823,-0.150539,0.537986,7.456000,16.099954

-0.691415,3.502850,8.716135,17.924116,0.133953,-0.054346,0.553175,7.456000,16.099954

-0.521369,1.309012,8.316167,17.938822,0.036961,-0.085522,0.610464,7.468000,16.099954

-0.135770,1.704190,10.002260,17.947645,0.037227,-0.057810,0.739699,7.464000,16.099954

-0.114215,1.634735,10.383068,17.918234,-0.015799,-0.017041,0.786063,7.460000,16.099954

-0.334557,3.797437,10.646521,17.944704,-0.015799,0.073556,0.831628,7.464000,16.099954

-1.031508,3.799832,8.091035,17.915293,0.033230,0.106864,0.765013,7.444000,16.099954

-1.247059,2.719678,9.911250,17.912352,-0.009404,0.070625,0.516137,7.452000,16.099954

0.230668,2.178404,10.191467,17.932940,-0.084013,0.090610,0.356259,7.452000,16.099954

0.906063,3.054981,9.556787,17.929998,0.055080,0.103667,0.159077,7.460000,16.099954

-0.061525,4.417747,8.100615,17.921175,0.151806,0.126582,0.019450,7.468000,16.099954

0.245038,1.119806,8.253896,17.903528,0.005518,0.032521,-0.053027,7.460000,16.099954

-0.080685,1.062325,10.871653,17.921175,-0.088276,0.111661,-0.168406,7.456000,16.099954

-0.181276,2.935230,10.749507,17.906469,0.105975,0.131912,-0.127104,7.472000,16.099954

-0.262706,0.904254,9.463381,17.894705,0.043889,0.107930,-0.088733,7.460000,16.099954

-0.868646,4.230936,5.296047,17.906469,-0.155159,0.090344,0.009325,7.452000,16.099954

-0.432753,0.355794,9.415481,17.915293,-0.066960,0.080484,0.108182,7.456000,16.099954

0.237853,1.503009,10.931528,17.918234,-0.126114,0.011737,0.128967,7.448000,16.099954

1.109640,0.461175,11.925461,17.903528,-0.054969,0.087679,0.247009,7.444000,16.099954

-0.588429,2.896910,8.828701,17.912352,0.134753,0.240628,0.246210,7.456000,16.099954

-1.132098,2.125714,8.479028,17.921175,-0.001676,0.118855,0.263797,7.448000,16.099954

-0.382457,2.295760,8.876601,17.900587,0.009249,0.035186,0.316023,7.452000,16.099954

-0.492628,1.644315,9.702883,17.906469,-0.014999,0.065030,0.262731,7.448000,7.308414

0.235458,1.608389,9.671748,17.882940,-0.020329,0.110861,0.176130,7.440000,7.308414

-0.581244,2.892120,6.095983,17.888823,-0.145299,0.119388,0.122838,7.432000,7.308414

0.300123,2.185589,7.233617,17.891764,-0.191664,0.086880,0.144421,7.428000,7.308414

0.886903,0.312684,14.502502,17.906469,-0.121851,0.206255,0.252872,7.436000,7.308414

-0.260311,0.624036,11.980547,17.903528,-0.121318,0.297918,0.356792,7.440000,7.308414

0.206717,6.348133,6.780959,17.912352,0.254661,0.253419,0.194783,7.436000,7.308414

-2.633776,3.996224,5.698410,17.882940,-0.042179,0.068227,-0.030911,7.428000,7.308414

-0.835116,0.274364,9.369975,17.909410,-0.161021,-0.027966,0.034639,7.444000,7.308414

-0.693810,6.168507,6.634862,17.879999,-0.256681,0.202524,-0.034375,7.420000,7.308414

-1.680558,2.307735,8.651469,17.885881,-0.164751,0.058635,-0.135631,7.424000,7.308414

-2.490075,0.645592,8.929292,17.903528,-0.366730,0.038117,-0.092730,7.436000,7.308414

-2.176327,2.403536,6.840834,17.879999,-0.370727,-0.018107,-0.081539,7.416000,7.308414

-1.132098,1.689820,8.074269,17.865294,-0.365930,-0.046618,-0.034109,7.428000,7.308414

-1.726063,5.950560,7.439589,17.888823,-0.200191,0.096206,0.022648,7.428000,7.308414

-1.781149,1.682635,7.475514,17.900587,-0.309174,-0.155868,0.107916,7.440000,7.308414

-2.717601,3.047796,9.566367,17.882940,-0.537532,-0.107105,0.204109,7.428000,7.308414

-1.091383,-2.039225,18.178858,17.891764,0.012180,-0.037026,0.243279,7.440000,7.308414

-0.020809,-4.458195,14.533637,17.879999,-0.178341,-0.032229,0.361855,7.464000,7.308414

-0.092660,3.871683,8.153305,17.891764,-0.082414,0.043713,0.270458,7.452000,7.308414

1.018629,5.380546,8.519743,17.897646,-0.131710,0.050641,0.214767,7.452000,7.308414

0.285753,2.271810,12.629597,17.906469,-0.115456,0.109262,0.169735,7.444000,7.308414

-0.382457,3.347173,8.414362,17.882940,-0.083747,0.049841,0.016519,7.456000,7.308414

-1.994306,0.200118,8.004814,17.903528,0.072933,0.035719,-0.176133,7.464000,7.308414

-2.051786,1.970037,4.927214,17.906469,0.191509,-0.025568,-0.249144,7.476000,7.308414

-1.702113,2.695728,11.827266,17.894705,-0.155425,-0.029831,-0.280320,7.480000,7.308414

1.531163,-1.967375,13.908537,17.885881,-0.063495,-0.172388,-0.269661,7.476000,7.308414

2.726278,0.875513,11.247670,17.894705,0.214425,0.076754,-0.212105,7.476000,7.308414

1.437757,1.637130,8.819120,17.894705,0.101711,0.069293,-0.100191,7.476000,7.308414

0.836608,4.135135,8.934082,17.868235,0.352186,0.175079,0.075408,7.468000,7.308414

-0.351322,3.668106,9.623847,17.891764,0.306887,0.011204,0.098323,7.472000,7.308414

0.012721,1.505404,7.276728,17.882940,0.302890,0.073556,0.026911,7.484000,7.308414

-0.576454,-0.118420,7.540180,17.874117,0.303157,0.032521,-0.023983,7.492000,7.308414

-0.746500,1.795201,10.220207,17.877058,0.368973,0.123651,0.062351,7.496000,7.308414

0.297728,5.138649,7.149792,17.879999,0.744152,0.242494,0.132697,7.508000,7.308414

-0.847091,0.030072,3.597978,17.882940,0.656486,0.067428,0.197980,7.524000,14.391618

-0.497418,7.315721,12.145802,17.874117,-0.634258,0.043979,0.251273,7.520000,14.391618

0.410294,4.274046,12.143408,17.874117,0.448645,0.317370,0.231555,7.516000,14.391618

-1.419501,5.066798,11.889536,17.882940,0.377233,0.213449,0.019717,7.504000,14.391618

-3.558253,2.173614,10.663286,17.862352,0.008716,-0.002652,-0.026914,7.504000,14.391618

-0.756080,3.155572,10.488449,17.871176,-0.351275,-0.045552,-0.042902,7.492000,14.391618

0.613871,-1.859599,9.190349,17.871176,-0.126114,-0.098312,-0.179597,7.476000,14.391618

-0.435148,-1.828464,9.537626,17.882940,-0.363799,-0.079659,-0.091398,7.480000,14.391618

0.882113,-0.688434,7.319838,17.859411,-0.371793,0.132178,-0.075677,7.468000,14.391618

0.324073,3.989039,9.168794,17.871176,0.022838,0.261146,-0.059422,7.472000,14.391618

0.585131,0.183353,7.271938,17.871176,-0.011535,0.073024,-0.092464,7.456000,14.391618

-2.190697,3.071746,8.407177,17.877058,0.067604,0.151097,-0.116179,7.464000,14.391618

-0.789611,1.665870,7.358159,17.865294,0.094783,0.086880,-0.136430,7.468000,14.391618

-0.724945,1.819151,12.790063,17.868235,-0.248687,0.062898,-0.106053,7.476000,14.391618

-4.130663,6.714571,9.432246,17.862352,0.055613,0.257416,0.038103,7.480000,14.391618

-0.629144,1.725745,7.947333,17.865294,0.014312,-0.021038,-0.036240,7.480000,14.391618

0.479750,2.319710,9.092153,17.862352,-0.136506,-0.124692,0.187322,7.468000,14.391618

-0.183671,5.244029,7.736571,17.868235,0.068137,0.283262,0.202777,7.480000,14.391618

-1.862579,-0.149555,8.613149,17.859411,-0.162620,0.063431,0.186789,7.472000,14.391618

-1.591942,3.536380,9.221484,17.868235,-0.052038,0.122053,0.154014,7.476000,14.391618

-0.552504,-0.640534,10.989009,17.859411,-0.162353,0.099403,0.047695,7.476000,14.391618

-0.645909,7.543248,9.247829,17.868235,0.001788,0.377590,-0.072213,7.488000,14.391618

0.173187,4.024964,5.772655,17.877058,0.177920,0.070625,-0.212372,7.476000,14.391618

-1.323700,2.092183,10.385464,17.871176,-0.183404,0.134043,-0.292844,7.484000,14.391618

-1.433871,4.753050,10.167517,17.891764,-0.208185,0.210785,-0.351465,7.484000,14.391618

-0.301027,4.005804,10.615385,17.885881,0.133687,0.111128,-0.464445,7.492000,14.391618

-1.326095,3.299273,10.438154,17.877058,-0.141835,0.072224,-0.499352,7.488000,14.391618

-2.703231,2.015543,9.535232,17.882940,0.000455,0.019731,-0.510810,7.488000,14.391618

-2.212252,1.047955,8.958032,17.856470,-0.181538,-0.119629,-0.500951,7.496000,14.391618

-1.510512,5.761353,10.462104,17.868235,0.106774,0.106065,-0.563037,7.492000,14.391618

-1.096173,1.979617,7.331813,17.877058,0.012979,-0.245133,-0.580090,7.496000,14.391618

0.712067,2.705308,9.492122,17.888823,0.054014,-0.072199,-0.500418,7.504000,14.391618

-0.595614,2.480176,10.371094,17.874117,-0.101866,-0.135617,-0.489759,7.500000,14.391618

-0.669860,2.678963,7.808422,17.871176,0.418535,-0.019173,-0.446326,7.504000,15.902226

-3.172655,-0.130395,9.494516,17.891764,-0.189266,-0.403944,-0.410087,7.496000,15.902226

-1.750014,2.753209,9.690907,17.891764,0.162998,-0.129754,-0.371983,7.488000,15.902226

-2.044601,2.449041,9.698093,17.894705,0.156603,-0.453240,-0.336011,7.496000,15.902226

-1.036298,3.921978,9.468171,17.885881,0.185114,-0.332799,-0.150553,7.504000,15.902226

0.491725,2.911280,7.624006,17.859411,0.356183,-0.310416,0.027977,7.504000,15.902226

-1.038693,1.179681,10.299243,17.877058,-0.036583,-0.372502,0.180394,7.500000,15.902226

-2.885253,4.204591,6.905500,17.871176,0.220287,-0.240336,0.341870,7.504000,15.902226

-2.245783,1.088670,8.996352,17.879999,-0.250019,-0.536110,0.429003,7.508000,15.902226

-1.637448,6.134976,12.732583,17.900587,0.184315,-0.110036,0.616859,7.500000,15.902226

1.969452,3.062166,9.551997,17.882940,0.194440,-0.324805,0.620057,7.504000,15.902226

0.659376,1.943692,9.365185,17.885881,-0.037915,-0.336529,0.726109,7.512000,15.902226

-1.970355,6.728941,4.309299,17.877058,0.260789,-0.010646,0.830829,7.504000,15.902226

0.185162,0.111502,8.778405,17.865294,-0.158623,-0.272845,0.778868,7.504000,15.902226

1.849701,5.299115,12.758928,17.879999,-0.004874,-0.144676,0.866801,7.508000,15.902226

0.822237,1.088670,10.943503,17.862352,0.118498,0.046644,0.750623,7.516000,15.902226

-1.112938,4.982972,9.180769,17.853529,0.200569,0.069826,0.521732,7.516000,15.902226

-0.748895,1.258717,9.374765,17.865294,-0.059499,-0.054612,0.397827,7.512000,15.902226

0.740807,3.474110,6.680368,17.856470,0.038560,0.141771,0.298703,7.516000,15.902226

1.001864,2.118529,8.584409,17.862352,-0.000344,0.147367,0.254470,7.520000,15.902226

-0.171696,1.891002,9.137658,17.856470,-0.008071,0.207587,0.172666,7.520000,15.902226

-0.027994,4.398587,9.437036,17.859411,0.337797,0.182273,0.031175,7.524000,15.902226

0.379159,0.578531,5.784631,17.838821,-0.029921,0.038117,-0.038105,7.524000,15.902226

-1.196764,3.562725,9.896879,17.853529,-0.079750,0.176144,-0.100191,7.520000,15.902226

1.147960,2.875355,10.347143,17.853529,0.129423,0.156693,-0.079940,7.524000,15.902226

-1.242269,-0.111235,9.379556,17.841763,0.297295,0.185471,0.026112,7.524000,15.902226

-2.897228,2.626273,7.746151,17.835880,-0.260145,0.197994,-0.014390,7.516000,15.902226

0.613871,0.968919,9.671748,17.829998,0.112636,0.157492,0.048495,7.516000,15.902226

1.339562,4.314762,6.828859,17.832939,0.138217,0.150298,0.066081,7.520000,15.902226

-0.636329,2.757999,7.530600,17.850588,-0.130111,0.121786,0.115910,7.520000,15.902226

-2.892438,5.636813,10.545930,17.865294,0.005785,0.320034,0.226758,7.516000,17.436811

-0.392037,-0.101654,9.432246,17.827057,-0.203388,0.076488,0.305098,7.520000,17.436811

-1.855394,4.099210,7.717412,17.832939,-0.262543,0.118589,0.233153,7.528000,17.436811

-2.873278,2.722074,9.408296,17.824116,0.046554,0.203857,0.154547,7.528000,17.436811

-3.697164,2.472991,9.745994,17.818233,0.080128,0.199860,0.027178,7.532000,17.436811

-2.937943,4.281231,5.164320,17.832939,0.018308,0.075955,-0.016256,7.532000,17.436811

-3.321146,1.850286,12.399675,17.812351,-0.251352,-0.071133,-0.153217,7.540000,17.436811

0.063016,4.834481,9.468171,17.832939,0.168860,0.214249,-0.257937,7.540000,17.436811

-0.250731,0.351004,7.276728,17.838821,-0.018463,-0.165460,-0.275524,7.544000,17.436811

-2.401459,2.271810,11.508728,17.821175,-0.331557,0.035452,-0.265931,7.544000,17.436811

0.316888,5.576937,9.441826,17.818233,0.393221,0.177743,-0.467909,7.544000,17.436811

-1.637448,-2.853532,8.095824,17.838821,-0.088809,-0.147075,-0.514807,7.548000,17.436811

-0.495023,5.035663,10.201047,17.829998,-0.185002,-0.084722,-0.537989,7.544000,17.436811

-0.526159,4.858431,12.567327,17.838821,0.178719,0.096206,-0.560638,7.540000,17.436811

1.332377,1.974827,8.809541,17.841763,0.365509,-0.144410,-0.593680,7.540000,17.436811

-1.778754,1.605994,8.256291,17.824116,0.012713,-0.111901,-0.523067,7.532000,17.436811

-2.763107,0.556976,8.476633,17.821175,0.043356,-0.154535,-0.440197,7.536000,17.436811

-1.414711,3.538775,7.911408,17.847647,-0.069091,-0.167859,-0.337876,7.540000,17.436811

0.973124,4.762630,9.638218,17.838821,0.063341,-0.059142,-0.185992,7.544000,17.436811

1.418597,4.350687,8.905341,17.815292,-0.104264,-0.083656,-0.031977,7.536000,17.436811

-1.390761,0.578531,11.118340,17.827057,0.121962,0.010671,0.015986,7.544000,17.436811

-3.953431,6.415194,9.274175,17.841763,-0.016598,-0.155335,-0.068482,7.544000,17.436811

3.435204,2.724468,8.481422,17.827057,0.071335,-0.209427,0.021582,7.548000,17.436811

-2.046996,3.143597,9.494516,17.841763,0.016710,-0.060741,0.045830,7.544000,17.436811

-0.119005,1.376073,8.546088,17.827057,0.084924,-0.050349,0.053291,7.552000,17.436811

-0.550109,3.392679,8.103010,17.838821,-0.169281,-0.078327,0.053025,7.548000,17.436811

0.997074,2.223909,11.348262,17.809410,0.178719,-0.011978,0.144954,7.556000,17.436811

0.470170,3.169942,10.366303,17.838821,0.041757,-0.012511,0.095126,7.556000,19.117075

-2.396669,0.736602,7.916198,17.838821,0.040958,-0.047151,0.133763,7.556000,19.117075

-2.056576,1.440738,10.148356,17.838821,-0.086411,0.046377,0.182525,7.548000,19.117075

1.713185,3.143597,10.579460,17.850588,-0.127447,0.047177,0.213968,7.556000,19.117075

1.183886,3.775882,9.132869,17.841763,-0.018730,0.062898,0.268593,7.552000,19.117075

0.098942,4.302787,6.828859,17.853529,0.264253,0.049042,0.143089,7.552000,19.117075

-0.732130,5.593702,10.304033,17.838821,0.185913,0.210785,0.170268,7.556000,19.117075

-0.799191,0.351004,10.670471,17.821175,0.009782,0.041048,0.171867,7.552000,19.117075

-0.174091,5.083563,7.889853,17.832939,0.244002,0.077287,0.249408,7.560000,1577.219362

-1.508116,-0.082494,7.300678,17.824116,-0.133842,-0.090584,0.247009,7.552000,403.271278

-1.074618,3.739957,10.529164,17.829998,-0.186868,0.125517,0.336008,7.552000,521.201118

0.637821,4.269256,10.766272,17.835880,-0.005140,0.230769,0.430336,7.560000,521.201118

0.498910,4.149505,9.336445,17.829998,-0.030188,0.228105,0.281117,7.556000,521.201118

-1.208739,5.703873,8.970007,17.844706,0.189377,0.225707,0.069812,7.564000,521.201118

-1.795519,3.723191,9.449011,17.856470,-0.042445,0.235566,-0.160145,7.564000,150.084730

-2.320028,4.491993,9.731624,17.871176,0.039892,0.224641,-0.394366,7.564000,344.262790

-2.202672,3.450159,11.221325,17.844706,-0.030987,0.074622,-0.548381,7.564000,344.262790

0.671351,1.967642,8.067084,17.841763,-0.005940,-0.086321,-0.540920,7.564000,344.262790

-0.109425,4.820111,10.828542,17.835880,0.137151,0.090077,-0.427141,7.564000,169.223936

-1.146469,2.669383,10.316008,17.853529,0.085457,-0.051414,-0.371450,7.568000,1735.296115

0.082176,1.989197,8.344907,17.850588,0.158201,-0.145476,-0.342939,7.568000,817.150542

-1.773964,0.856353,10.083691,17.862352,-0.018730,-0.135617,-0.379177,7.572000,307.168078

-0.226781,3.438184,9.848979,17.844706,0.117166,-0.130554,-0.323753,7.572000,307.168078

-0.387247,1.021610,10.711186,17.856470,0.065206,-0.142278,-0.313894,7.564000,2164.589145

-0.547714,2.307735,9.662168,17.844706,-0.001143,-0.154269,-0.310697,7.564000,2499.701135

-0.490233,3.730376,8.131750,17.844706,0.004452,-0.064205,-0.294442,7.568000,2444.690022

-1.124913,2.348450,10.177097,17.841763,-0.041379,-0.071133,-0.297906,7.560000,2497.004100

-2.090106,4.264466,9.619058,17.862352,0.050550,-0.052747,-0.286981,7.560000,2636.885670

-0.061525,2.453831,7.262358,17.871176,0.183782,-0.103908,-0.212372,7.564000,2469.911077

-1.266220,2.039493,7.796447,17.871176,-0.152227,-0.109770,-0.138562,7.568000,2612.575704

-0.974027,4.745865,11.549443,17.862352,-0.042445,-0.055411,-0.086868,7.576000,2441.680887

-0.993187,1.766461,9.506492,17.874117,0.021772,-0.036226,-0.035441,7.572000,1734.862500

-1.728458,2.307735,10.838122,17.853529,-0.172212,0.059967,0.022382,7.576000,2270.411888

-0.945287,3.665711,8.570039,17.844706,0.108106,0.013336,0.042100,7.576000,2224.225411

-0.190856,1.107830,9.657377,17.856470,-0.133309,-0.041022,-0.008795,7.576000,1586.227911

-1.515302,2.128109,11.163845,17.856470,-0.105064,-0.000254,0.007993,7.576000,2584.373694

-1.745224,0.846773,9.405901,17.850588,-0.082414,0.025060,0.018651,7.576000,547.700080

0.010326,1.601204,9.041858,17.847647,0.019108,0.109795,0.073009,7.580000,1221.162609

-0.732130,1.553304,8.723320,17.853529,-0.019263,0.171881,0.138559,7.568000,302.312981

-0.437543,1.395233,9.504096,17.853529,0.019374,0.145235,0.029043,7.568000,302.312981

-1.165629,1.665870,10.325588,17.885881,0.003920,0.122053,-0.083671,7.564000,302.312981

-1.462611,2.334080,8.414362,17.850588,0.028967,-0.003984,-0.224096,7.568000,302.312981

-2.245783,2.844219,9.238249,17.862352,-0.028855,-0.011445,-0.318690,7.564000,302.312981

-1.443451,2.956785,9.319680,17.829998,0.037760,-0.017307,-0.348001,7.568000,302.312981

-1.953590,2.401141,9.621452,17.862352,-0.060831,0.026393,-0.381309,7.564000,302.312981

-1.292565,2.877750,8.981982,17.862352,-0.022460,-0.026900,-0.436200,7.576000,302.312981

-1.266220,1.821546,10.263317,17.877058,-0.063229,-0.150006,-0.360259,7.576000,302.312981

-1.536857,2.851404,9.465776,17.888823,0.073733,-0.081258,-0.447125,7.584000,302.312981

-2.252968,1.984407,8.766430,17.868235,0.167261,-0.120428,-0.410354,7.576000,302.312981

-1.467401,1.723350,8.586803,17.868235,-0.014200,-0.143344,-0.277389,7.580000,302.312981

-1.158444,3.644156,11.235696,17.862352,0.020174,-0.126024,-0.232090,7.576000,47.124316

-0.691415,3.919583,9.283754,17.879999,0.221886,-0.208361,-0.211839,7.576000,47.124316

0.810262,5.155414,9.851375,17.888823,0.233877,-0.041022,-0.218767,7.576000,47.124316

1.255736,0.159403,7.920988,17.882940,0.157135,-0.245133,-0.264599,7.572000,47.124316

-1.498536,1.847891,9.544811,17.877058,0.014312,-0.160398,-0.278721,7.576000,47.124316

-1.496141,1.876631,10.258528,17.891764,0.113436,-0.187577,-0.263000,7.576000,47.124316

-2.006281,2.370006,9.262199,17.897646,-0.057900,-0.139081,-0.273658,7.572000,47.124316

-1.321305,4.286021,9.647798,17.894705,0.236541,-0.198235,-0.236886,7.576000,47.124316

0.312098,4.628509,9.499307,17.894705,0.271714,-0.240336,-0.160945,7.576000,47.124316

0.508490,2.508917,8.364067,17.885881,0.076397,-0.280039,-0.070880,7.576000,47.124316

0.240248,3.524405,8.483818,17.874117,0.036694,-0.201966,0.033306,7.572000,47.124316

0.036671,3.155572,8.883786,17.894705,0.093984,-0.235540,0.011190,7.572000,47.124316

-0.655490,2.602323,9.463381,17.888823,0.020707,-0.199301,-0.034109,7.572000,47.124316

-1.726063,3.220237,9.963940,17.879999,0.020707,-0.130820,-0.001867,7.568000,47.124316

0.747992,4.156691,8.785590,17.897646,0.027901,-0.192640,-0.041569,7.576000,47.124316

-0.384852,4.863221,7.916198,17.900587,0.097981,-0.102042,-0.031977,7.580000,47.124316

-0.437543,2.810689,7.849137,17.885881,0.172324,-0.077794,0.054623,7.576000,47.124316

-1.316515,1.914952,9.772339,17.897646,-0.150096,-0.093249,0.089797,7.576000,47.124316

-0.233966,2.846615,9.494516,17.900587,0.003120,-0.085788,0.119107,7.572000,47.124316

-1.098568,2.302945,10.814172,17.903528,0.036961,-0.024235,0.039169,7.576000,47.124316

-2.188302,1.785621,9.899275,17.897646,0.006851,-0.022637,0.006660,7.580000,25.188863

-0.904572,2.951995,9.108918,17.912352,0.116367,-0.183580,0.023714,7.576000,25.188863

-0.665070,2.147269,8.711345,17.903528,0.126492,-0.114566,0.038103,7.580000,25.188863

-1.256639,1.287457,8.229946,17.906469,-0.000344,-0.064738,0.094326,7.584000,25.188863

-0.657885,1.855076,9.408296,17.888823,-0.046975,-0.035160,0.213435,7.584000,25.188863

-0.363297,2.549632,10.704001,17.912352,-0.001676,0.004010,0.281117,7.576000,25.188863

-2.377509,2.281390,8.282637,17.906469,0.067871,-0.079926,0.214235,7.576000,92.668641

-2.729577,0.887489,8.572433,17.897646,-0.083214,-0.147607,0.246476,7.572000,92.668641

-1.939220,3.035821,11.094389,17.909410,-0.133309,-0.114833,0.394630,7.576000,92.668641

-1.563202,5.172179,9.178373,17.888823,0.254661,-0.043154,0.420743,7.576000,92.668641

-2.473310,1.459898,7.504255,17.918234,-0.098669,-0.131353,0.507610,7.580000,92.668641

-2.209857,3.636971,8.833491,17.903528,-0.059765,-0.018373,0.614728,7.584000,92.668641

-1.203949,2.219119,9.729228,17.912352,-0.052571,-0.069534,0.686406,7.580000,92.668641

-0.938102,2.896910,10.447734,17.915293,-0.048840,-0.006116,0.741564,7.580000,92.668641

-1.017138,4.870406,8.548483,17.915293,0.157668,0.034386,0.656029,7.584000,92.668641

-1.975145,2.190379,8.205996,17.921175,0.088655,-0.086055,0.623521,7.580000,92.668641

-0.162116,2.731653,8.831096,17.906469,-0.033652,-0.135350,0.491355,7.584000,92.668641

-2.748737,1.510194,9.353210,17.909410,0.083325,0.019997,0.373846,7.588000,92.668641

2.630477,1.979617,5.367897,17.915293,-0.086145,-0.128955,0.333876,7.592000,92.668641

-1.754804,1.675450,12.849938,17.918234,-0.008604,0.454864,0.273389,7.588000,92.668641

2.096388,2.250255,8.244316,17.924116,-0.025125,-0.192373,0.031974,7.580000,92.668641

-1.400341,0.942574,12.368540,17.909410,-0.185002,0.214782,-0.235821,7.580000,92.668641

0.594711,5.620048,9.410690,17.909410,0.185647,0.073556,-0.559573,7.588000,92.668641

1.959872,1.730535,6.728268,17.897646,-0.056834,0.067428,-0.735704,7.580000,92.668641

-0.135770,2.611902,8.289822,17.897646,-0.107462,0.055703,-0.787664,7.584000,92.668641

0.321678,2.884935,10.021420,17.882940,0.007916,0.017066,-0.760752,7.584000,92.668641

0.769547,3.098092,8.570039,17.912352,-0.050972,-0.084456,-0.600874,7.588000,92.668641

0.542020,2.317315,11.044094,17.909410,-0.055768,-0.079926,-0.413018,7.584000,92.668641

0.479750,5.153018,7.406059,17.894705,0.149674,-0.015176,-0.287248,7.584000,92.668641

-0.279472,0.643197,9.190349,17.891764,-0.014999,-0.086854,-0.241683,7.592000,92.668641

-3.057694,4.379427,9.393926,17.877058,-0.077085,-0.090052,-0.177732,7.584000,92.668641

-1.050668,4.999737,8.752060,17.891764,0.117166,-0.061007,-0.092197,7.592000,92.668641

-0.063920,2.238280,8.364067,17.879999,-0.084546,-0.163862,-0.037573,7.588000,92.668641

-1.388366,4.068075,10.167517,17.891764,-0.051238,0.073823,0.136960,7.592000,92.668641

-0.885411,1.462293,8.289822,17.882940,0.009515,-0.040223,0.202777,7.592000,92.668641

-1.594337,2.480176,8.297007,17.909410,-0.167149,0.029057,0.335208,7.592000,92.668641

-1.548832,2.535262,10.244158,17.900587,0.143013,-0.020771,0.292841,7.600000,92.668641

-3.632499,-2.163766,8.943662,17.891764,-0.056035,0.014935,0.375977,7.596000,92.668641

-2.803822,2.616693,10.253737,17.885881,-0.177009,0.098071,0.294973,7.588000,92.668641

-0.202831,5.062008,7.334208,17.900587,0.163797,0.182806,0.180394,7.592000,92.668641

2.041302,-0.798605,7.750942,17.891764,0.020707,0.077287,0.302434,7.588000,92.668641

-0.617169,0.956944,7.568920,17.900587,-0.027523,0.131379,0.359989,7.592000,92.668641

-2.799032,0.954549,7.573710,17.900587,0.116900,0.194264,0.314158,7.596000,92.668641

-2.111661,3.773487,8.855046,17.903528,-0.291854,0.144968,0.265928,7.592000,92.668641

1.698815,5.500297,10.246552,17.891764,0.027368,0.164420,0.204375,7.596000,92.668641

1.674865,2.707703,8.464658,17.894705,0.037760,0.149232,0.168403,7.596000,92.668641

-2.602640,1.359308,7.688671,17.897646,-0.126114,0.222775,0.047163,7.596000,92.668641

-2.619406,3.569910,11.820080,17.897646,-0.265741,0.214249,-0.103655,7.604000,92.668641

-1.036298,4.779396,8.069479,17.894705,0.080661,0.186803,-0.216902,7.604000,92.668641

-2.466124,3.557935,9.494516,17.891764,0.023371,0.111128,-0.268329,7.604000,92.668641

-3.124755,0.044442,10.644126,17.906469,-0.142368,0.024527,-0.292044,7.612000,92.668641

-3.860026,2.865775,10.684841,17.879999,0.140881,0.140705,-0.255272,7.604000,92.668641

-2.466124,1.067115,9.913645,17.871176,-0.053103,-0.177984,-0.251808,7.604000,92.668641

-0.186066,2.480176,9.161609,17.897646,-0.013134,-0.170523,-0.058357,7.608000,92.668641

0.053436,1.385653,9.477751,17.885881,0.232544,-0.086854,0.053824,7.608000,92.668641

-0.111820,0.073182,7.367738,17.874117,-0.120785,-0.115365,0.154280,7.612000,92.668641

-1.338070,2.832244,8.689790,17.888823,-0.090408,-0.007182,0.038103,7.604000,92.668641

-0.408803,4.870406,10.519585,17.891764,-0.085079,-0.220885,-0.146556,7.600000,92.668641

0.530045,1.768856,13.494199,17.897646,0.223751,-0.163595,-0.177465,7.604000,92.668641

-0.095055,5.047637,6.692343,17.882940,0.096382,-0.184379,-0.343471,7.608000,92.668641

2.261644,3.648946,8.555669,17.882940,0.139016,-0.264318,-0.337609,7.604000,92.668641

1.785035,1.862262,10.620175,17.862352,-0.066693,-0.213424,-0.186259,7.604000,92.668641

1.708395,4.841666,9.132869,17.888823,0.113969,-0.132686,-0.014124,7.600000,92.668641

0.613871,2.803504,6.639653,17.874117,0.114501,-0.098578,0.085533,7.604000,92.668641

-0.775241,0.779713,12.002102,17.877058,-0.046442,-0.102042,0.250473,7.600000,92.668641

-0.801586,3.054981,8.730505,17.879999,0.085723,-0.079127,0.508409,7.612000,92.668641

-1.084198,2.267020,7.475514,17.885881,-0.085079,-0.095114,0.557438,7.604000,92.668641

-0.916547,4.008199,9.657377,17.862352,0.009515,-0.043421,0.568363,7.604000,92.668641

-0.322582,2.290970,10.524375,17.885881,0.091053,-0.058875,0.565965,7.612000,92.668641

-0.322582,1.064720,10.023815,17.874117,-0.065094,-0.057010,0.391699,7.612000,92.668641

-1.685348,1.974827,10.720766,17.871176,-0.114123,0.018132,0.296038,7.608000,92.668641

-1.017138,2.765184,12.078742,17.865294,0.084924,0.060500,0.234486,7.608000,92.668641

0.930013,1.670660,9.611873,17.874117,0.323408,0.016267,0.198513,7.616000,92.668641

0.010326,0.791688,6.158254,17.882940,-0.013933,0.021863,0.165205,7.612000,92.668641

0.264198,5.085958,9.175979,17.865294,0.069203,0.071691,0.150284,7.612000,92.668641

1.614989,1.411998,13.228352,17.871176,0.098514,0.009872,0.164406,7.616000,92.668641

0.074991,2.786739,6.275609,17.856470,0.072933,0.162555,0.324550,7.616000,92.668641

0.125287,5.339830,2.235212,17.871176,-0.167149,0.040515,0.248875,7.604000,92.668641

0.716857,-1.222524,12.586487,17.862352,-0.114923,0.104733,0.262464,7.600000,92.668641

1.607804,3.186707,10.066926,17.874117,0.360979,0.075155,0.348265,7.608000,92.668641

-6.245465,-2.772101,9.092153,17.859411,-0.085878,0.304313,0.207306,7.600000,92.668641

-1.306935,5.545802,7.638376,17.862352,-0.053903,0.295520,0.100455,7.600000,6.876387

2.110758,8.479701,-0.341829,17.888823,0.040691,0.103134,0.021582,7.596000,6.876387

-1.424291,2.084998,4.860153,17.877058,-0.446669,0.034120,0.235285,7.588000,6.876387

-2.106871,3.268138,6.757009,17.856470,-0.430681,0.113526,0.183858,7.592000,6.876387

-2.387089,1.665870,11.781760,17.853529,-0.456261,0.074356,0.037303,7.584000,6.876387

-1.153654,1.131781,13.489408,17.871176,-0.374191,-0.003718,-0.119643,7.584000,6.876387

0.676141,1.208421,13.649876,17.868235,-0.206586,-0.154003,-0.115646,7.584000,6.876387

-0.212411,1.390443,11.386581,17.862352,-0.497296,-0.030097,-0.019453,7.592000,6.876387

2.539467,8.556341,10.481264,17.865294,0.054281,0.220377,-0.013857,7.600000,6.876387

-2.279313,-0.216615,9.645403,17.856470,-0.201790,0.035719,-0.119377,7.588000,6.876387

-0.267496,6.867853,7.286308,17.882940,0.287702,0.050108,-0.194785,7.604000,6.876387

-1.232689,-0.542338,7.118657,17.871176,-0.133842,-0.158266,-0.175334,7.600000,6.876387

-2.770292,-0.125605,6.989326,17.850588,-0.147698,-0.054612,-0.207576,7.600000,6.876387

-2.396669,-0.539943,7.468329,17.859411,-0.394175,0.012803,-0.206243,7.588000,6.876387

1.684445,3.383099,10.864468,17.859411,0.032431,-0.015975,-0.172669,7.584000,6.876387

3.468734,0.746182,8.493398,17.853529,0.380697,-0.149206,-0.148954,7.584000,6.876387

-1.117728,0.612061,7.578500,17.841763,0.155270,-0.012511,-0.066883,7.600000,6.876387

-1.503326,5.761353,8.809541,17.868235,0.173123,-0.003451,0.002930,7.604000,6.876387

-0.677045,11.176493,7.212062,17.859411,0.435056,0.023195,0.013322,7.616000,6.876387

3.111876,3.620206,6.419311,17.859411,-0.066160,-0.191041,0.215567,7.612000,6.876387

-1.766779,5.600887,11.693144,17.835880,0.345258,0.371728,0.465509,7.620000,6.876387

-0.521369,1.218001,10.672866,17.844706,0.419335,-0.167059,0.240881,7.612000,6.876387

-4.791688,2.176009,8.871811,17.844706,-0.212714,-0.110836,0.278718,7.608000,6.876387

0.625846,0.480335,10.117222,17.844706,-0.165018,0.023461,0.462045,7.604000,6.876387

-1.836234,1.093460,10.452524,17.850588,-0.234831,-0.071932,0.435398,7.604000,6.876387

0.271383,-0.204640,9.223879,17.841763,-0.323296,-0.161463,0.528660,7.596000,19.762494

0.678536,-0.997392,7.875483,17.856470,-0.062696,-0.116431,0.783132,7.592000,19.762494

-1.618287,0.264784,8.591594,17.859411,-0.045110,0.143636,0.905705,7.592000,19.762494

-2.173932,3.229818,7.693461,17.853529,0.041757,0.176944,1.028011,7.604000,19.762494

-0.418383,2.152059,9.302915,17.850588,0.117699,0.102867,1.051726,7.600000,19.762494

-0.013624,2.633458,7.889853,17.862352,-0.056301,0.144435,1.118342,7.604000,19.762494

0.312098,4.650064,10.035790,17.835880,-0.045376,0.164953,0.999499,7.608000,19.762494

-1.419501,2.372401,10.057346,17.856470,0.212826,0.213183,0.781800,7.604000,19.762494

-1.912875,0.564161,11.163845,17.853529,-0.084280,0.179608,0.652299,7.612000,19.762494

1.296451,3.852523,10.617781,17.847647,0.110505,0.247024,0.560902,7.608000,19.762494

2.153868,5.188944,8.859837,17.856470,-0.041646,0.459128,0.449254,7.612000,19.762494

0.029486,4.683595,7.475514,17.844706,0.355650,0.329893,0.225692,7.612000,19.762494

-2.219437,-0.944701,7.734177,17.847647,-0.180739,0.247290,0.104452,7.608000,19.762494

-0.942892,3.066956,10.047766,17.850588,-0.239094,0.439676,-0.039704,7.612000,19.762494

-0.506998,2.671778,8.265871,17.853529,0.140881,0.457529,-0.184660,7.604000,19.762494

-4.365375,0.271969,8.670630,17.856470,-0.045643,0.286460,-0.402093,7.608000,19.762494

-3.812125,2.144874,8.086245,17.865294,0.021772,0.203857,-0.675217,7.608000,19.762494

-0.782426,0.137847,10.229787,17.856470,-0.427483,0.085814,-0.743698,7.608000,19.762494

2.563417,6.199642,9.233459,17.832939,-0.033918,0.316570,-0.805517,7.612000,19.762494

1.169515,1.541329,8.768826,17.868235,-0.026457,0.198794,-0.844154,7.612000,19.762494

-0.849486,1.675450,10.351933,17.856470,0.059877,0.063697,-0.929156,7.612000,19.762494

-0.236361,1.198841,10.105247,17.871176,-0.004074,-0.026900,-0.965661,7.612000,19.762494

0.273778,2.540052,8.591594,17.832939,0.091319,-0.042355,-0.952338,7.604000,19.762494

0.034276,0.391720,8.107800,17.847647,-0.079750,-0.088719,-0.820173,7.604000,19.762494

0.407899,0.844378,9.877720,17.862352,-0.074687,-0.071932,-0.647505,7.600000,19.762494

-0.645909,2.530472,10.244158,17.853529,0.165396,0.017866,-0.487361,7.612000,19.762494

-1.594337,3.157967,9.037067,17.856470,0.046554,-0.087920,-0.449257,7.612000,19.762494

-2.020651,3.402259,7.315048,17.856470,0.110238,-0.142278,-0.385839,7.604000,19.762494

-1.172814,1.938902,9.513677,17.859411,-0.049373,-0.159065,-0.246746,7.608000,19.762494

-0.880621,3.411839,8.505373,17.832939,0.063341,-0.130820,0.030375,7.616000,19.762494

-1.953590,2.774764,9.995075,17.847647,0.034829,-0.122293,0.199046,7.612000,19.762494

-1.340465,2.211934,8.670630,17.853529,0.109972,-0.150006,0.359723,7.612000,19.762494

-2.511630,2.197564,8.910131,17.835880,-0.165284,-0.053813,0.466042,7.612000,19.762494

-2.154772,4.281231,6.524692,17.859411,0.062808,0.061832,0.530259,7.620000,19.762494

-3.220556,-1.641652,10.732741,17.835880,-0.199125,0.029057,0.508676,7.616000,19.762494

-1.084198,2.549632,12.694263,17.838821,-0.018197,0.099936,0.440195,7.616000,19.762494

1.670074,3.138807,8.670630,17.844706,0.125959,-0.013044,0.320287,7.616000,19.762494

1.210231,3.419024,5.964257,17.850588,0.079861,0.082616,0.198247,7.620000,19.762494

-0.554899,0.370164,9.882509,17.835880,-0.109061,0.176411,0.194783,7.620000,19.762494

-0.274681,3.026241,11.458432,17.847647,0.033497,0.201192,0.131365,7.620000,19.762494

-1.160839,3.613021,6.349855,17.847647,0.098247,0.197994,0.058887,7.620000,19.762494

-1.381181,0.616851,9.947175,17.847647,-0.121051,0.100736,-0.097527,7.616000,19.762494

-1.165629,2.894515,11.503938,17.824116,0.213625,0.073024,-0.013857,7.620000,19.762494

-0.727340,3.311248,7.298283,17.806469,-0.051238,0.117256,0.170002,7.616000,19.762494

-2.080526,2.489757,7.691066,17.827057,0.089720,0.163088,0.121506,7.624000,19.762494

-1.651818,0.997660,9.214299,17.832939,-0.105330,0.193997,0.118042,7.624000,11.534603

-1.314120,4.070470,9.334050,17.835880,-0.014733,0.147633,0.117509,7.620000,11.534603

-0.423173,3.284903,6.460026,17.821175,0.010581,0.099670,0.094859,7.620000,214.165360

-1.699718,4.810531,9.789104,17.829998,-0.201790,0.197728,0.017585,7.628000,214.165360

-1.587152,4.010594,11.681170,17.835880,0.208030,0.184138,-0.027447,7.628000,214.165360

-1.826654,1.802386,8.023974,17.806469,0.126226,-0.028232,-0.197716,7.628000,171.665362

-3.016979,2.202354,8.582014,17.824116,0.015377,-0.105773,-0.369851,7.628000,171.665362

-0.722550,3.081326,8.665839,17.844706,0.054814,-0.126557,-0.390635,7.628000,1068.388075

-1.021928,-1.519506,9.925620,17.818233,-0.078950,-0.105240,-0.374115,7.624000,969.681571

-1.714088,2.130504,11.197375,17.835880,-0.176476,0.034653,-0.436733,7.632000,660.475648

-0.945287,5.924215,8.069479,17.835880,0.157402,0.000546,-0.487361,7.632000,660.475648

0.381554,-0.480068,6.859994,17.818233,0.172057,-0.220352,-0.543585,7.628000,660.475648

-2.221832,-0.623769,10.474079,17.824116,-0.179673,-0.181182,-0.643242,7.624000,1271.946482

-0.557294,4.975787,9.537626,17.818233,0.021506,-0.123093,-0.541986,7.628000,2505.112578

1.559904,2.681358,8.373647,17.812351,0.147809,-0.155335,-0.425275,7.636000,2374.053526

-0.691415,2.336475,8.364067,17.797646,0.117433,-0.078061,-0.180130,7.632000,2374.053526

-0.375272,3.751932,9.063413,17.806469,-0.038182,-0.079393,-0.075677,7.632000,2374.053526

0.072596,5.045243,8.074269,17.815292,0.055347,-0.043154,-0.025049,7.632000,2374.053526

-1.115333,1.644315,10.529164,17.812351,0.002321,-0.040223,-0.005064,7.628000,2374.053526

-1.251849,3.450159,10.282477,17.815292,-0.022194,-0.110036,0.025579,7.632000,2374.053526

-0.315397,2.446646,9.923224,17.818233,0.006318,-0.153203,0.007193,7.628000,2374.053526

0.963544,4.559054,9.635822,17.818233,-0.014999,-0.114833,0.023714,7.636000,2374.053526

0.736017,3.608231,7.710226,17.806469,-0.008604,-0.195304,0.047695,7.632000,2374.053526

0.633031,2.075418,9.405901,17.821175,-0.026724,-0.203032,0.037037,7.636000,870.258168

0.513280,2.904095,10.042975,17.824116,-0.119986,0.056769,-0.054360,7.632000,1919.789778

-0.892597,1.380862,10.114826,17.821175,-0.073621,-0.105240,-0.060755,7.632000,1739.644127

-0.538134,2.135294,10.596226,17.824116,0.024171,-0.031696,0.067947,7.636000,1739.644127

-0.631539,1.888607,9.369975,17.806469,0.083858,-0.049283,0.117775,7.636000,1739.644127

0.043856,2.669383,9.580737,17.815292,0.018042,-0.048217,0.223294,7.636000,1739.644127

-1.249454,2.753209,10.112432,17.821175,0.056413,-0.070333,0.370382,7.636000,111.548074

-1.735643,4.166270,9.928015,17.794704,0.145678,0.127648,0.571028,7.632000,571.480767

-1.290170,3.727982,8.459867,17.815292,0.038560,0.093275,0.541184,7.636000,571.480767

-1.603917,1.227581,8.855046,17.824116,-0.054436,0.085814,0.542783,7.640000,571.480767

-2.315238,1.680240,10.105247,17.835880,-0.254016,0.100469,0.383971,7.632000,571.480767

-0.760870,5.658368,8.819120,17.821175,0.016976,0.163354,0.254737,7.636000,571.480767

-1.493746,3.023846,13.427138,17.821175,0.077996,0.130313,-0.032510,7.636000,571.480767

0.197137,3.687266,9.092153,17.803528,0.177920,0.025593,-0.391168,7.636000,571.480767

-1.261430,1.744905,7.695856,17.803528,0.079062,-0.134284,-0.569965,7.640000,571.480767

0.019906,2.108948,7.626400,17.809410,-0.279863,0.048509,-0.715453,7.636000,571.480767

2.853214,4.652460,10.866862,17.818233,-0.050705,0.117789,-0.739701,7.636000,571.480767

2.299965,2.444251,9.238249,17.806469,0.124094,0.029057,-0.805251,7.632000,571.480767

-1.235084,1.536539,8.565248,17.800587,-0.048041,0.008273,-0.865471,7.636000,571.480767

-3.275641,2.559212,8.938871,17.788822,0.157135,-0.002652,-0.796191,7.636000,571.480767

-0.516578,-0.523178,9.214299,17.794704,0.022838,-0.203565,-0.751426,7.636000,571.480767

-1.606312,4.978182,7.207272,17.803528,-0.088276,-0.285102,-0.602473,7.640000,571.480767

0.338444,4.362662,10.366303,17.818233,0.211494,-0.165194,-0.425542,7.636000,571.480767

-1.524882,0.875513,6.505531,17.809410,0.372704,-0.251261,-0.181995,7.632000,571.480767

-2.590665,-1.723083,7.097101,17.803528,-0.355538,-0.454839,-0.191321,7.632000,571.480767

-2.657726,4.144715,14.380356,17.797646,0.030566,0.000546,-0.052228,7.632000,571.480767

0.439034,3.390284,9.734018,17.806469,0.334333,-0.319476,0.100721,7.640000,571.480767

-1.388366,3.866893,6.709108,17.824116,-0.105863,-0.283770,0.054357,7.636000,571.480767

-1.419501,3.201077,10.215417,17.806469,0.180051,-0.138281,0.200645,7.632000,571.480767

-1.560807,3.074141,5.030200,17.806469,0.240538,-0.298159,0.317888,7.636000,22.462853

-1.685348,-0.769865,10.371094,17.829998,-0.281995,-0.345056,0.379708,7.632000,22.462853

-1.960775,2.487362,13.467854,17.815292,0.095583,-0.069534,0.557172,7.640000,22.462853

-1.644633,4.669225,6.673183,17.794704,0.082526,-0.111901,0.701061,7.640000,22.462853

-2.149982,2.633458,5.209826,17.827057,-0.011002,-0.148407,0.854810,7.632000,22.462853

-1.594337,-0.745915,8.186835,17.818233,-0.250819,-0.255258,1.102354,7.632000,22.462853

0.348024,1.874237,12.931370,17.800587,0.054814,-0.053546,1.222528,7.636000,22.462853

-0.990792,2.731653,10.974638,17.803528,0.351920,0.073556,1.172434,7.644000,22.462853

-1.989516,0.949759,8.323352,17.791763,0.064939,0.135909,1.036804,7.644000,22.462853

-0.638724,2.925650,10.088481,17.824116,-0.001676,0.024794,1.113012,7.648000,22.462853

-2.557135,0.693492,9.046648,17.812351,-0.158889,0.199860,0.792192,7.636000,22.462853

0.328863,1.625154,10.862072,17.815292,-0.060031,0.207854,0.696265,7.636000,22.462853

0.362394,2.099368,11.484777,17.809410,-0.075220,0.505492,0.569429,7.636000,22.462853

-2.703231,6.091866,9.669353,17.815292,0.018042,0.569710,0.275254,7.648000,22.462853

0.458195,4.650064,8.682605,17.818233,0.062541,0.175079,0.138293,7.636000,22.462853

1.320402,3.282508,8.332932,17.812351,0.134220,0.182806,0.043166,7.644000,22.462853

1.073714,0.525841,8.881392,17.827057,-0.044843,0.217180,-0.090599,7.636000,22.462853

-2.856513,2.762789,8.517348,17.827057,0.010848,0.293921,-0.276856,7.636000,22.462853

-3.297196,0.475545,10.457314,17.815292,0.014312,0.276601,-0.412219,7.636000,22.462853

-1.069828,1.766461,11.355447,17.812351,0.096915,-0.021038,-0.608069,7.640000,22.462853

3.404068,5.981695,7.099496,17.812351,-0.162087,0.074622,-0.414617,7.636000,22.462853

-0.138165,1.476663,9.317285,17.809410,0.146743,0.167085,-0.387704,7.644000,22.462853

-1.651818,-0.211825,9.379556,17.803528,-0.134907,0.126316,-0.344537,7.640000,22.462853

-2.952313,0.065997,11.882351,17.791763,-0.118120,0.086613,-0.366920,7.628000,21.519992

-0.344137,3.325619,7.813212,17.838821,0.055613,0.090077,-0.212638,7.636000,21.519992

-1.764384,3.622601,2.757326,17.809410,0.020973,0.027991,-0.168406,7.628000,21.519992

-1.857789,-2.987653,10.759087,17.809410,-0.239361,0.079152,0.041567,7.628000,21.519992

-1.304540,4.190221,11.944621,17.812351,0.017776,0.362135,0.106584,7.632000,21.519992

-2.106871,4.070470,4.730822,17.818233,0.020440,0.130046,-0.384507,7.632000,21.519992

0.271383,-3.411572,13.403188,17.803528,-0.283327,-0.038624,-0.439664,7.632000,21.519992

0.024696,8.606637,10.172307,17.788822,0.102777,0.246491,-0.660029,7.636000,21.519992

2.276014,2.458621,7.461144,17.818233,0.051883,0.213982,-0.654433,7.636000,21.519992

-0.171696,3.490875,6.397756,17.782940,-0.063762,0.183073,-0.817775,7.636000,21.519992

1.907181,-2.906222,8.591594,17.791763,-0.208185,0.106598,-0.647239,7.636000,21.519992

-3.115175,4.245306,16.689154,17.812351,-0.410696,0.281397,-0.668556,7.636000,21.519992

0.218693,4.736285,5.945097,17.794704,0.381497,0.032521,-0.761818,7.632000,42.415182

1.617384,-0.065729,10.689631,17.800587,-0.309174,-0.193172,-0.433536,7.640000,42.415182

-1.213529,1.438343,13.372053,17.782940,-0.059765,0.240895,-0.556641,7.632000,357.817909

-1.081803,2.142479,11.353051,17.791763,0.120630,0.071691,-0.598742,7.636000,357.817909

-0.758475,7.231895,6.230104,17.785881,0.232011,0.020797,-0.494822,7.628000,2496.555124

-0.344137,-0.504018,4.476950,17.806469,0.031099,-0.114833,-0.480433,7.632000,1755.479060

0.874928,5.763749,13.127761,17.806469,-0.325162,-0.100976,-0.389569,7.632000,1755.479060

2.788548,2.422696,10.603411,17.791763,0.775328,0.062099,-0.377046,7.640000,2345.977374

-1.850604,1.431158,7.525810,17.785881,0.149408,-0.409007,-0.392234,7.636000,2365.157486

-4.904254,-2.060781,8.086245,17.794704,0.093717,-0.199301,-0.192654,7.632000,2333.754589

-2.784662,-0.709989,11.520702,17.774117,-0.042978,-0.080992,0.013322,7.636000,2553.952442

-2.997819,6.115817,11.436877,17.794704,0.104642,0.264077,-0.072746,7.640000,2553.952442

-0.902177,3.272928,9.482541,17.803528,0.091319,-0.009580,-0.122841,7.640000,2553.952442

-1.168024,1.912557,8.797565,17.791763,0.085457,0.034653,-0.098060,7.640000,158.113447

-3.352282,8.889249,8.704160,17.806469,0.395619,0.070625,-0.170271,7.636000,158.113447

-1.299750,-2.518229,11.103970,17.788822,-0.007538,-0.391154,-0.134298,7.644000,158.113447

0.841398,6.602005,9.044252,17.812351,-0.100001,-0.037292,-0.030911,7.640000,158.113447

-0.267496,3.100487,7.487489,17.800587,0.236275,-0.065004,-0.192121,7.640000,158.113447

-4.719838,-0.238171,9.549602,17.794704,-0.060298,-0.273644,-0.170271,7.640000,158.113447

-2.229017,0.597691,9.791499,17.774117,-0.009137,-0.319476,-0.199582,7.640000,158.113447

-0.135770,0.171378,9.369975,17.794704,-0.059499,-0.274710,-0.264332,7.636000,158.113447

-0.674650,2.906490,10.222602,17.791763,0.193108,-0.281105,-0.326951,7.632000,158.113447

-1.771569,1.261111,8.538903,17.800587,0.218422,-0.355448,-0.254739,7.636000,158.113447

-1.002767,1.165311,6.395360,17.803528,0.151540,-0.270713,-0.189723,7.636000,158.113447

-3.661239,3.007081,7.698251,17.777058,0.090786,-0.186244,-0.064219,7.640000,158.113447

-1.570387,1.253927,8.500583,17.812351,0.236008,-0.285369,0.025046,7.640000,158.113447

-2.827772,3.883658,7.571315,17.815292,0.159267,-0.195837,0.130032,7.644000,158.113447

-1.735643,2.020333,8.737690,17.791763,-0.077884,-0.317344,0.125502,7.636000,158.113447

-0.245941,4.286021,10.680051,17.791763,-0.021927,-0.223816,0.177996,7.636000,158.113447

0.439034,2.142479,10.167517,17.791763,0.180051,-0.140413,0.279784,7.632000,158.113447

-1.314120,3.165152,8.819120,17.794704,0.028168,-0.180116,0.301634,7.640000,158.113447

-0.245941,0.492310,9.717253,17.809410,-0.026191,-0.204630,0.308296,7.636000,158.113447

-1.378785,2.906490,10.543535,17.794704,-0.042445,-0.124425,0.308562,7.632000,158.113447

-1.239874,3.349569,9.338840,17.771175,-0.045110,-0.168125,0.292042,7.632000,158.113447

-1.397946,3.416629,9.075388,17.777058,0.062008,-0.066603,0.371181,7.632000,158.113447

0.166002,1.622760,9.058622,17.791763,-0.072822,-0.057277,0.494020,7.640000,158.113447

-1.335675,2.384376,10.476475,17.800587,-0.034451,0.083948,0.515071,7.636000,158.113447

-1.208739,2.556817,9.626243,17.815292,0.132621,-0.057543,0.521199,7.636000,20.887149

1.969452,2.769974,8.114985,17.800587,0.081993,0.068494,0.580087,7.640000,350.555129

-0.178881,0.834798,9.144843,17.800587,-0.064561,0.203324,0.594210,7.644000,717.614470

-0.308212,3.110067,9.290939,17.809410,-0.006473,0.208919,0.510541,7.636000,717.614470

-0.310607,2.087393,9.350815,17.785881,0.031898,0.130313,0.414614,7.632000,717.614470

0.836608,1.261111,8.984377,17.788822,-0.034718,0.112460,0.221429,7.636000,717.614470

-0.377667,4.707545,8.416758,17.794704,-0.013933,0.181474,0.124437,7.632000,150.913357

-0.135770,2.985526,9.049043,17.791763,-0.073355,0.127915,0.046896,7.624000,150.913357

-0.248336,1.172496,12.346985,17.785881,0.037227,0.124717,-0.088467,7.632000,150.913357

-0.938102,5.038058,8.596384,17.777058,-0.049906,0.292322,-0.120176,7.632000,150.913357

-2.449359,2.609508,9.369975,17.762352,-0.025391,0.240895,-0.112981,7.636000,150.913357

-0.384852,2.846615,10.514794,17.768234,-0.076552,0.183073,-0.173202,7.636000,150.913357

-1.570387,1.471873,9.743598,17.774117,-0.111725,0.122053,-0.169471,7.632000,150.913357

-2.751132,3.339988,9.889694,17.791763,-0.045909,0.203324,-0.159879,7.632000,150.913357

-2.988239,2.245465,8.972402,17.779999,0.079062,0.096739,-0.207842,7.636000,150.913357

-0.837511,3.651341,8.457473,17.774117,-0.005407,-0.028232,-0.381576,7.636000,150.913357

1.090480,1.773646,8.823911,17.797646,0.050018,-0.090052,-0.491891,7.636000,150.913357

-0.346532,2.714888,8.287426,17.774117,0.007916,0.057569,-0.531061,7.644000,150.913357

-0.653095,0.624036,9.391530,17.791763,-0.060564,-0.013310,-0.618194,7.636000,150.913357

0.209112,2.580767,10.215417,17.771175,-0.001143,0.089544,-0.798056,7.640000,150.913357

-0.880621,3.126832,9.202324,17.768234,0.315414,0.107930,-0.909704,7.640000,150.913357

-1.702113,0.753367,7.034831,17.771175,0.017776,-0.118297,-0.993107,7.644000,150.913357

-1.575177,0.853958,10.586645,17.785881,0.017776,-0.170790,-0.941946,7.640000,150.913357

-0.842301,2.044283,9.104128,17.756470,0.229613,-0.103108,-0.926225,7.636000,150.913357

-1.000372,0.727022,9.774734,17.774117,0.002054,-0.178251,-0.900644,7.640000,150.913357

-1.625473,5.469161,9.405901,17.771175,0.123295,-0.122560,-0.824703,7.636000,150.913357

0.060621,3.646551,8.347301,17.768234,0.224018,-0.264052,-0.726378,7.640000,150.913357

-1.601522,1.744905,8.850256,17.747646,-0.003009,-0.330401,-0.556641,7.636000,150.913357

-1.692533,4.156691,10.811777,17.765293,0.163531,-0.377565,-0.429805,7.632000,150.913357

-1.069828,3.881263,8.816726,17.759411,0.222952,-0.395418,-0.328283,7.636000,150.913357

-0.253126,2.781949,8.239526,17.771175,0.002054,-0.425794,-0.151885,7.640000,150.913357

0.518070,4.520733,8.902946,17.741764,-0.016865,-0.340260,0.105518,7.644000,150.913357

1.205441,3.842942,10.610596,17.759411,0.169659,-0.275509,0.209705,7.644000,150.913357

0.118102,2.370006,8.776011,17.747646,0.123295,-0.290165,0.250740,7.648000,150.913357

0.017511,1.694610,9.204719,17.759411,0.033763,-0.268048,0.291775,7.644000,150.913357

-1.330885,2.096973,9.190349,17.765293,0.000189,-0.237405,0.413015,7.636000,150.913357

-1.953590,2.722074,10.112432,17.777058,0.087056,-0.254192,0.511607,7.644000,150.913357

-1.888925,2.113739,9.302915,17.756470,0.138750,-0.243267,0.609132,7.644000,150.913357

-3.225345,2.408326,8.246711,17.768234,0.153671,-0.126557,0.782865,7.640000,150.913357

-2.478099,0.123477,9.262199,17.756470,0.085723,-0.201966,0.903306,7.644000,150.913357

-2.957103,3.208262,6.843229,17.765293,-0.017664,-0.089252,0.941677,7.640000,150.913357

-1.524882,-0.036989,13.312178,17.759411,0.041491,-0.201166,0.908636,7.632000,150.913357

-2.502050,5.107513,7.832372,17.750587,0.160067,-0.033295,0.999766,7.636000,150.913357

-2.264943,1.610784,5.401427,17.750587,-0.026457,-0.105506,0.950204,7.636000,150.913357

-2.205067,1.476663,10.325588,17.765293,-0.087744,-0.017041,0.905971,7.640000,150.913357

-1.352440,4.633299,7.983259,17.732941,0.066005,0.183872,0.996302,7.640000,150.913357

-2.602640,1.649105,9.908854,17.735882,-0.067759,0.130579,0.847882,7.648000,150.913357

-1.970355,3.876473,9.774734,17.756470,-0.002476,0.175612,0.754088,7.640000,150.913357

-3.898346,0.600086,10.620175,17.750587,-0.049639,0.075955,0.554774,7.644000,150.913357

-3.680399,3.466924,10.521979,17.741764,-0.037649,0.117789,0.393564,7.644000,150.913357

-0.207621,2.808294,8.232341,17.741764,0.169126,-0.011445,0.272856,7.644000,11.718997

0.882113,2.413116,9.916039,17.768234,0.164063,-0.036493,0.308296,7.644000,11.718997

-0.083080,0.343819,9.678933,17.756470,-0.042179,-0.031430,0.326682,7.644000,11.718997

0.443824,5.358990,9.750783,17.741764,0.117433,0.135376,0.364786,7.644000,11.718997

-0.202831,1.634735,8.431128,17.730000,0.275445,-0.004251,0.353594,7.644000,11.718997

-0.083080,-0.262121,8.605964,17.738823,-0.134907,0.022662,0.339205,7.644000,11.718997

-1.168024,3.761512,10.344748,17.732941,-0.037649,0.191333,0.297904,7.644000,11.718997

0.273778,4.211776,11.228511,17.744705,0.025769,0.093541,0.233953,7.640000,11.718997

0.029486,3.229818,8.931686,17.727058,0.121429,0.219578,0.199313,7.640000,11.718997

-0.449518,2.710098,8.383227,17.732941,-0.067226,0.180408,0.160143,7.644000,11.718997

-0.119005,3.526800,10.591435,17.718235,-0.013933,0.168684,0.148152,7.640000,11.718997

0.084571,5.006922,9.226274,17.721176,0.124627,0.215581,0.031175,7.648000,11.718997

0.537230,1.622760,8.419152,17.721176,-0.054969,0.111927,-0.034109,7.652000,11.718997

0.515675,4.518338,10.150752,17.735882,-0.049639,0.218246,-0.002932,7.648000,11.718997

2.117943,3.541170,10.603411,17.735882,0.032697,0.239030,0.019184,7.644000,11.718997

1.011444,2.137689,9.269384,17.721176,0.034030,0.273936,0.023181,7.652000,11.718997

0.532440,2.837034,7.595265,17.730000,-0.251352,0.345881,-0.012525,7.644000,11.718997

0.371974,2.975945,10.639336,17.721176,-0.025658,0.383985,-0.027181,7.644000,11.718997

0.561180,1.934112,10.244158,17.724117,-0.044044,0.255550,-0.167873,7.640000,11.718997

0.661771,1.218001,8.383227,17.721176,-0.054169,0.306178,-0.203579,7.640000,11.718997

1.327587,3.768697,7.573710,17.718235,-0.028855,0.223575,-0.225962,7.648000,11.718997

-1.278195,-0.539943,10.268107,17.709410,-0.136773,0.284062,-0.094596,7.648000,11.718997

-0.578849,1.409603,11.056069,17.700586,-0.186335,0.302448,-0.079674,7.656000,11.718997

1.176700,4.583004,8.874207,17.712351,0.137950,0.422889,-0.021585,7.644000,11.718997

-0.027994,2.288575,7.782077,17.712351,-0.071756,0.279532,-0.110850,7.648000,21.306581

-1.139284,3.349569,8.723320,17.709410,-0.178341,0.332025,-0.071946,7.644000,752.049386

-1.405131,4.748260,9.353210,17.718235,0.093717,0.334423,-0.046099,7.644000,752.049386

-0.533344,1.907767,6.364225,17.718235,0.104376,0.191066,-0.181196,7.648000,752.049386

-2.078131,0.437225,9.329260,17.718235,-0.317168,0.075688,-0.257404,7.652000,752.049386

-1.120123,5.191339,11.305151,17.703527,-0.150895,0.303514,-0.220899,7.644000,752.049386

0.182767,4.115975,8.914922,17.730000,0.105975,0.245691,-0.278188,7.648000,752.049386

-1.474586,4.642879,9.621452,17.715292,-0.000077,0.168950,-0.295508,7.652000,752.049386

-1.544042,2.896910,8.433522,17.703527,0.169926,0.030123,-0.331214,7.656000,752.049386

-3.292406,0.901859,9.633428,17.703527,-0.064295,-0.120961,-0.355729,7.656000,752.049386

-2.638566,3.706426,8.864626,17.706469,0.032697,-0.152670,-0.312295,7.656000,752.049386

-1.400341,0.389324,9.022697,17.682940,0.029500,-0.165993,-0.325619,7.660000,752.049386

0.070201,0.578531,10.574670,17.697645,-0.264675,-0.216355,-0.297906,7.656000,752.049386

-0.401617,4.226146,10.830937,17.703527,0.125693,0.019198,-0.266464,7.648000,752.049386

-0.801586,1.309012,10.102851,17.691763,0.084658,-0.040490,-0.408755,7.656000,752.049386

-1.247059,3.102882,8.591594,17.691763,0.062275,-0.167059,-0.456984,7.652000,752.049386

-2.099686,2.005963,9.132869,17.688822,0.107840,-0.086055,-0.538788,7.660000,752.049386

0.415084,0.784503,10.593830,17.688822,0.109705,-0.248330,-0.370917,7.652000,752.049386

-1.282985,2.676568,8.938871,17.703527,0.112370,-0.186244,-0.261667,7.656000,752.049386

-0.727340,3.174732,7.279123,17.691763,0.098247,-0.190508,-0.176932,7.656000,752.049386

-0.365692,2.372401,7.880273,17.685881,0.036161,-0.193172,-0.048231,7.648000,752.049386

-1.651818,3.469320,9.822634,17.677057,-0.062963,-0.193172,0.038636,7.652000,752.049386

-0.892597,4.642879,10.622570,17.685881,0.230146,-0.242468,0.042633,7.660000,752.049386

0.486935,3.795042,8.011999,17.688822,0.134486,-0.232342,0.090329,7.656000,22.211800

0.951569,2.664593,8.179650,17.691763,0.002587,-0.184113,0.246743,7.656000,22.211800

0.491725,5.220079,8.584409,17.677057,0.063874,-0.151071,0.390633,7.656000,22.211800

-0.839906,0.262388,8.258686,17.700586,0.134753,-0.143078,0.510008,7.664000,22.211800

-0.619564,0.566556,6.536667,17.682940,0.203500,-0.114566,0.499882,7.660000,22.211800

-2.705626,-0.415402,8.941267,17.697645,-0.305177,-0.155068,0.533723,7.656000,22.211800

-2.023046,2.281390,9.460986,17.697645,-0.060031,-0.028765,0.613928,7.656000,22.211800

-0.736920,2.482572,9.219090,17.694704,-0.069091,0.031722,0.719714,7.656000,22.211800

-0.557294,3.442974,9.817844,17.694704,0.086523,0.167085,0.761548,7.660000,22.211800

-1.091383,1.847891,9.226274,17.679998,0.102511,0.116190,0.765013,7.656000,22.211800

-0.859066,2.077813,9.350815,17.682940,-0.077884,0.154827,0.739699,7.660000,22.211800

-0.315397,4.542289,9.422666,17.691763,0.052149,0.221443,0.615261,7.660000,22.211800

-0.030389,2.664593,8.471843,17.697645,0.051616,0.212383,0.470838,7.656000,22.211800

-0.322582,3.234608,8.778405,17.665293,-0.083747,0.180408,0.395429,7.660000,22.211800

-0.008834,4.247701,9.707673,17.668234,-0.000344,0.274736,0.282982,7.660000,22.211800

-0.631539,2.561607,8.459867,17.662352,0.007384,0.224108,0.114844,7.652000,22.211800

-0.550109,3.215447,8.895761,17.674116,-0.014999,0.191333,-0.024782,7.660000,22.211800

-2.638566,2.801109,9.140054,17.688822,-0.021128,0.209719,-0.115380,7.656000,22.211800

-1.503326,3.272928,10.739926,17.659410,0.048152,0.040515,-0.214770,7.652000,22.211800

0.352814,1.285062,10.129196,17.668234,0.135818,-0.008780,-0.283517,7.656000,22.211800

-0.059130,3.481295,7.925778,17.679998,-0.017131,0.015201,-0.389037,7.660000,22.211800

-0.576454,0.485125,6.951005,17.671175,-0.007005,0.017066,-0.286981,7.656000,22.211800

-0.145350,2.013148,10.680051,17.679998,-0.258013,0.087945,-0.252874,7.660000,22.211800

0.738412,4.654854,10.699211,17.671175,0.096915,0.191599,-0.347468,7.656000,22.211800

-0.964447,3.390284,9.513677,17.697645,0.143546,0.062365,-0.430871,7.656000,22.211800

-0.780031,0.729417,7.693461,17.674116,0.070269,-0.030097,-0.527864,7.656000,22.211800

-2.075736,1.567674,9.367580,17.682940,-0.093872,-0.070333,-0.513741,7.656000,22.211800

-0.578849,3.153177,10.387858,17.677057,0.146477,-0.037558,-0.418880,7.656000,22.211800

0.031881,0.501890,8.924501,17.668234,0.126492,-0.097246,-0.355995,7.652000,22.211800

0.161212,2.020333,9.317285,17.671175,-0.117321,-0.096980,-0.242216,7.652000,22.211800

-0.245941,5.438026,8.816726,17.647646,0.091053,0.060500,-0.115913,7.656000,22.211800

0.142052,2.077813,7.806027,17.671175,0.077996,-0.008248,-0.000001,7.656000,22.211800

-0.679440,4.242911,10.490845,17.662352,-0.158889,-0.046085,0.048228,7.652000,22.211800

-0.169301,4.791370,9.743598,17.662352,0.221353,0.037318,0.029842,7.660000,22.211800

0.731227,4.947047,10.251343,17.659410,0.119031,-0.029298,0.061285,7.660000,22.211800

1.140775,3.054981,8.531718,17.665293,0.009249,-0.017840,-0.011193,7.656000,22.211800

-0.552504,2.331685,9.381950,17.653528,-0.044843,-0.035960,-0.106053,7.652000,22.211800

-0.154930,2.554422,10.687236,17.665293,-0.036583,-0.015176,-0.094862,7.660000,22.211800

0.290543,1.912557,8.960427,17.671175,-0.025924,0.060766,-0.128436,7.656000,22.211800

-0.013624,1.174891,8.962822,17.653528,-0.020329,0.029324,-0.127903,7.652000,22.211800

-0.727340,2.820269,10.395043,17.662352,-0.044577,0.024527,-0.055426,7.656000,22.211800

-0.262706,0.762947,9.420271,17.668234,-0.047241,-0.115632,0.031708,7.660000,22.211800

-0.260311,0.935389,11.525493,17.653528,-0.105863,0.054638,0.178262,7.656000,22.211800

-0.667465,2.870565,11.592553,17.650587,0.036694,0.050374,0.173999,7.648000,22.211800

0.451009,3.627391,8.428732,17.647646,0.165396,0.069027,0.288045,7.648000,22.211800

-1.371600,0.018096,8.859837,17.647646,-0.140503,0.075955,0.282715,7.640000,22.211800

-2.399064,3.852523,10.038186,17.647646,-0.097869,0.172680,0.222761,7.644000,22.211800

-2.664911,2.341265,9.923224,17.653528,0.093717,0.160690,0.118841,7.648000,22.211800

-2.133217,1.914952,9.362790,17.650587,-0.142635,0.079152,0.054623,7.644000,10.751165

-0.693810,4.683595,9.516071,17.656469,0.008449,0.115391,0.036504,7.652000,10.751165

-1.141679,1.184471,8.170071,17.644705,-0.005940,-0.032762,0.018385,7.640000,10.751165

-2.391879,2.286180,11.429692,17.641764,-0.071489,0.031455,-0.026648,7.648000,10.751165

-1.359625,2.940020,9.434641,17.629999,0.065739,0.093275,-0.024782,7.656000,10.751165

-1.227899,2.422696,8.182045,17.641764,0.071335,-0.004517,-0.090332,7.656000,10.751165

0.439034,2.851404,7.784472,17.641764,0.017509,0.055437,-0.157747,7.648000,10.751165

-0.348927,0.882698,9.403505,17.659410,-0.074420,0.088212,-0.219833,7.652000,10.751165

-1.184789,2.144874,9.568762,17.635881,0.005518,0.115391,-0.329882,7.648000,10.751165

-0.842301,0.588111,9.063413,17.653528,-0.033652,0.081817,-0.548381,7.644000,10.751165

-0.375272,1.946087,10.591435,17.641764,-0.093073,-0.020771,-0.689073,7.644000,10.751165

-0.368087,4.515944,9.499307,17.635881,0.257325,-0.060741,-0.873199,7.648000,10.751165

-0.818351,0.209698,8.241920,17.653528,0.064140,-0.139880,-0.912635,7.648000,10.751165

0.656981,3.876473,9.108918,17.647646,-0.043244,-0.116698,-0.893983,7.644000,10.751165

1.579064,3.145992,11.412927,17.647646,0.003653,-0.111635,-0.869468,7.648000,10.751165

1.610199,4.769815,9.420271,17.624117,0.157668,-0.183846,-0.878795,7.640000,10.751165

0.211507,3.172337,9.619058,17.624117,0.044155,0.019731,-0.784467,7.644000,10.751165

-0.514183,5.253609,9.025092,17.650587,0.095316,-0.069800,-0.751692,7.648000,10.751165

-0.425568,4.070470,7.791657,17.641764,0.192042,-0.223016,-0.614730,7.644000,10.751165

0.130077,2.144874,7.336603,17.644705,-0.068025,-0.228079,-0.440464,7.652000,10.751165

-1.814679,3.234608,9.056228,17.644705,0.036161,-0.131620,-0.238219,7.652000,10.751165

-0.286657,1.251532,11.012959,17.632940,-0.154093,-0.253659,-0.067949,7.652000,10.751165

0.506095,6.115817,9.413086,17.621176,-0.031520,-0.204097,0.099389,7.652000,10.751165

-0.415988,2.504127,8.761641,17.635881,0.213892,-0.219552,0.302966,7.648000,10.751165

-2.001491,2.142479,7.753336,17.647646,0.172857,-0.126290,0.533989,7.652000,10.751165

-2.245783,0.382139,7.755732,17.638823,-0.060298,-0.109503,0.574225,7.648000,20.789518

-3.740275,0.157008,9.444221,17.618235,-0.088809,-0.118297,0.624587,7.656000,20.789518

-2.717601,4.559054,10.177097,17.609411,0.072667,0.045578,0.661625,7.648000,20.789518

0.228273,2.381981,7.089916,17.624117,0.278109,-0.080992,0.605401,7.648000,20.789518

-0.653095,-0.302836,9.338840,17.653528,-0.129045,-0.165460,0.604869,7.644000,20.789518

-0.792006,4.544683,9.331655,17.618235,0.021240,0.136974,0.612596,7.648000,20.789518

-0.150140,3.069351,8.232341,17.624117,0.107307,0.052772,0.620590,7.652000,20.789518

-0.849486,3.002291,10.220207,17.632940,-0.152227,0.038117,0.626452,7.652000,20.789518

-0.114215,4.568634,10.773457,17.618235,0.102777,0.233167,0.599539,7.652000,20.789518

-1.160839,2.132899,10.531560,17.627058,0.011114,0.143636,0.523331,7.656000,20.789518

-3.009794,3.617811,8.644284,17.624117,-0.001410,0.257682,0.374112,7.652000,20.789518

-0.645909,3.093302,8.100615,17.629999,-0.012335,0.152429,0.122571,7.656000,20.789518

-2.660121,3.622601,8.991562,17.621176,-0.045376,0.205455,-0.054093,7.660000,20.789518

-3.828890,2.508917,9.681328,17.638823,0.021772,0.180141,-0.227294,7.660000,20.789518

-3.543883,1.002450,8.419152,17.627058,-0.106396,0.190267,-0.332547,7.660000,20.789518

-0.792006,1.491034,8.268266,17.618235,-0.022727,0.003743,-0.591015,7.656000,20.789518

0.079781,2.073023,9.920830,17.635881,-0.086944,0.020797,-0.575294,7.660000,20.789518

1.729950,2.041888,10.476475,17.629999,0.002854,-0.051681,-0.688274,7.660000,20.789518

-0.296237,2.238280,10.299243,17.629999,0.009515,-0.057010,-0.785266,7.664000,20.789518

-1.079408,3.191497,7.949728,17.603529,0.054547,-0.049016,-0.854014,7.656000,20.789518

0.647401,3.955508,8.459867,17.621176,0.058011,-0.123626,-0.941680,7.656000,20.789518

1.646124,3.337594,9.061018,17.615294,0.201368,-0.224615,-0.782602,7.660000,20.789518

2.029327,2.408326,9.551997,17.621176,-0.036316,-0.251261,-0.620059,7.656000,20.789518

0.685721,3.196287,11.046489,17.629999,0.109705,-0.089252,-0.474571,7.660000,20.789518

-0.562084,2.647828,8.936477,17.612352,0.011380,-0.104174,-0.389303,7.656000,21.301776

-0.945287,3.423814,8.165280,17.615294,0.065739,-0.118829,-0.293110,7.656000,21.301776

-0.732130,2.381981,10.368698,17.632940,-0.175143,-0.272312,-0.189723,7.656000,21.301776

-0.516578,4.980577,11.130315,17.632940,0.002587,-0.165194,-0.029312,7.656000,21.301776

0.455800,3.256163,8.718530,17.600588,0.162731,-0.097779,-0.013324,7.664000,21.301776

-0.490233,2.432276,6.859994,17.621176,-0.076552,-0.134551,0.023447,7.660000,21.301776

-1.065038,3.225028,9.118498,17.629999,-0.188999,-0.077794,0.065548,7.660000,21.301776

-0.145350,1.443133,11.202166,17.615294,-0.028855,-0.073531,0.015986,7.668000,21.301776

-0.291447,1.445528,10.124407,17.612352,-0.042978,-0.061807,-0.059422,7.656000,21.301776

-0.039970,2.688543,9.262199,17.609411,0.008183,-0.060208,-0.113248,7.660000,21.301776

-1.249454,2.884935,9.391530,17.612352,0.060676,-0.097779,-0.116179,7.660000,21.301776

-0.430358,2.415511,8.057505,17.603529,0.221619,-0.109770,-0.102323,7.660000,21.301776

-0.674650,0.971314,7.858717,17.612352,-0.069358,-0.093516,-0.136697,7.664000,21.301776

-0.236361,0.657567,9.240644,17.615294,0.033497,-0.039957,-0.119377,7.656000,21.301776

-2.734366,1.462293,9.640613,17.609411,-0.044044,0.008806,-0.136430,7.656000,21.301776

-2.336793,2.140084,10.227392,17.609411,0.075331,-0.004517,-0.210773,7.660000,21.301776

-2.384694,2.712493,9.262199,17.612352,0.077730,-0.091117,-0.282452,7.660000,21.301776

-0.983607,2.331685,8.898156,17.621176,0.062008,-0.146808,-0.185992,7.652000,21.301776

-1.405131,2.377191,9.374765,17.615294,0.008449,-0.037825,-0.111116,7.664000,21.301776

-2.906808,3.641761,7.750942,17.609411,-0.022460,-0.074863,-0.019187,7.660000,21.301776

-2.878068,2.187984,10.016630,17.591763,0.085457,-0.230744,0.115110,7.660000,21.301776

-0.856671,1.955667,10.797407,17.629999,-0.055502,-0.247264,0.257668,7.664000,21.301776

-2.339188,5.217684,8.744875,17.609411,0.096915,-0.246465,0.241680,7.660000,21.301776

-3.318751,0.748577,9.171188,17.609411,0.035895,-0.280572,0.367184,7.664000,21.301776

-2.787057,1.785621,9.302915,17.603529,-0.106129,-0.354382,0.476967,7.652000,21.501963

-1.223109,2.101763,8.706554,17.609411,0.125426,-0.349852,0.577689,7.656000,21.501963

-1.328490,0.068392,10.514794,17.624117,-0.072555,-0.403411,0.607000,7.652000,21.501963

-2.439779,0.619246,8.991562,17.609411,-0.093872,-0.186244,0.652032,7.656000,21.501963

-1.625473,3.634576,9.463381,17.612352,-0.012068,-0.168125,0.594743,7.652000,21.501963

-0.653095,2.997501,10.090877,17.600588,0.153405,-0.246731,0.596875,7.652000,21.501963

-1.666188,0.319869,8.320956,17.600588,0.106774,-0.290698,0.561968,7.660000,21.501963

-2.844537,1.191656,8.493398,17.600588,-0.019529,-0.256857,0.617392,7.660000,21.501963

-2.020651,0.853958,9.413086,17.603529,0.035362,-0.305087,0.733570,7.656000,21.501963

-0.839906,2.338870,10.692026,17.618235,0.033497,-0.132153,0.786330,7.660000,21.501963

-1.659003,2.564002,10.390254,17.603529,0.107840,-0.035427,0.855876,7.660000,21.501963

0.870138,3.555540,9.405901,17.603529,0.128890,-0.071666,0.843086,7.656000,21.501963

0.400714,3.567515,7.576105,17.615294,-0.045643,0.112193,0.889717,7.652000,21.501963

0.115707,1.914952,9.837004,17.594706,0.093717,-0.070866,0.716250,7.660000,21.501963

0.664166,3.227422,9.633428,17.597647,-0.022460,0.076221,0.612063,7.660000,21.501963

1.428177,3.826177,8.447892,17.600588,0.195240,0.215314,0.465242,7.664000,21.501963

1.349142,2.458621,6.958190,17.615294,0.056413,0.207054,0.415414,7.664000,21.501963

1.076110,2.142479,10.213022,17.588821,-0.056567,0.185204,0.347199,7.660000,21.501963

1.500028,2.849010,12.550561,17.606470,0.012979,0.233434,0.241680,7.660000,21.501963

1.923947,2.772369,10.660891,17.597647,0.108106,0.322432,0.213435,7.664000,27.432992

-0.157326,5.440421,3.494992,17.591763,0.127292,0.280331,0.160942,7.660000,27.432992

-0.899782,1.725745,4.532035,17.588821,-0.304910,0.123918,0.248342,7.648000,27.432992

0.805472,-1.763798,14.804275,17.579998,0.097714,0.123651,0.391166,7.652000,27.432992

0.106127,-3.584013,14.629438,17.571175,0.022039,0.262478,0.378109,7.664000,121.312906

-1.944010,4.331527,7.518625,17.585880,0.062808,0.528408,0.567031,7.656000,916.738630

-1.354835,2.010753,6.888734,17.597647,0.025503,0.408233,0.502014,7.648000,760.742867

-0.004044,2.887330,10.749507,17.579998,-0.093073,0.457529,0.544648,7.652000,760.742867

-0.071105,4.271651,8.610754,17.582939,-0.041113,0.451933,0.644038,7.652000,254.552519

-0.253126,2.564002,10.023815,17.597647,0.060676,0.435412,0.465509,7.652000,383.936730

-1.421896,2.681358,8.943662,17.577057,0.059877,0.573174,0.090063,7.652000,704.364380

-2.825377,4.683595,7.877878,17.588821,-0.053370,0.518282,-0.138295,7.652000,2328.276191

-0.109425,5.746984,9.238249,17.594706,-0.044843,0.467654,-0.339208,7.656000,862.688821

0.853373,3.495665,8.543694,17.600588,-0.070690,0.404236,-0.533726,7.652000,2531.602377

-1.603917,1.725745,9.563972,17.597647,-0.198592,0.250488,-0.673885,7.648000,2516.918593

-1.407526,-0.884826,10.270503,17.594706,-0.097070,0.212117,-0.757821,7.652000,1617.076951

-1.718878,2.044283,8.002419,17.588821,0.121696,0.224374,-0.803652,7.652000,984.392476

-2.035021,3.790252,5.339157,17.603529,0.036694,0.197994,-0.792994,7.656000,2707.318972

-2.499655,-0.777050,6.400151,17.591763,-0.514883,-0.054079,-0.774341,7.652000,2381.790576

0.312098,-1.988930,16.212545,17.579998,-0.081615,0.138573,-0.751159,7.648000,1201.717009

1.054554,1.883817,14.856965,17.591763,0.087855,0.213183,-0.943279,7.652000,1201.717009

-0.772846,4.913517,9.302915,17.591763,0.307154,0.014402,-0.836161,7.660000,1201.717009

-0.109425,4.542289,5.985812,17.591763,0.050018,-0.037026,-0.856678,7.652000,1201.717009

0.534835,2.336475,6.682763,17.556469,0.005518,-0.135084,-0.887588,7.644000,1201.717009

0.364789,2.381981,7.808422,17.559410,0.063607,-0.078327,-0.730375,7.644000,1201.717009

-0.063920,0.305499,9.341235,17.562351,-0.149030,-0.114033,-0.717851,7.648000,86.033703

-1.038693,2.355635,11.010564,17.597647,-0.085079,-0.068202,-0.807383,7.652000,2420.822888

-0.815956,3.402259,10.162726,17.603529,0.244002,-0.124159,-0.830831,7.652000,1753.483988

0.985099,2.128109,8.771220,17.577057,0.011647,-0.200101,-0.755422,7.652000,2423.780748

-0.404013,3.610626,9.832214,17.588821,-0.053103,-0.107105,-0.613132,7.660000,2623.434610

-0.796796,5.038058,9.963940,17.585880,0.182183,-0.068468,-0.339741,7.660000,2582.451085

0.276173,3.385494,8.548483,17.577057,0.206697,-0.237938,-0.164142,7.660000,2751.305699

-0.145350,4.891962,9.834609,17.577057,0.109705,-0.207561,0.002930,7.668000,649.204686

0.764757,5.035663,9.238249,17.565292,0.025237,-0.195038,0.191319,7.668000,672.991782

-3.531908,-1.179413,10.680051,17.577057,-0.303845,-0.221418,0.302167,7.656000,672.991782

-0.404013,3.339988,10.929133,17.577057,0.055613,-0.215822,0.356792,7.652000,672.991782

0.542020,3.854918,7.767707,17.571175,0.067604,-0.421264,0.306963,7.652000,672.991782

-0.777636,-0.429772,11.123130,17.577057,0.084924,-0.169191,0.550244,7.648000,672.991782

-2.195487,1.730535,10.766272,17.559410,0.103310,-0.180649,0.728241,7.652000,672.991782

-2.825377,1.098250,10.850098,17.577057,0.139549,-0.127623,0.862538,7.664000,672.991782

-2.705626,3.153177,8.622729,17.562351,0.018042,-0.055411,1.026945,7.660000,672.991782

-2.372719,3.862103,5.147555,17.585880,0.024437,0.004543,0.917696,7.664000,672.991782

-1.556017,2.341265,8.261081,17.582939,-0.036583,-0.031430,0.774072,7.652000,672.991782

-0.722550,3.596256,9.360395,17.579998,0.024171,0.005076,0.742363,7.656000,672.991782

-1.414711,0.561766,11.604528,17.565292,-0.134907,0.001878,0.701861,7.652000,672.991782

-1.115333,2.135294,10.725556,17.568233,-0.005940,0.106065,0.635778,7.652000,672.991782

-3.345096,2.813084,10.253737,17.571175,-0.017930,0.308310,0.481763,7.652000,672.991782

-5.555699,4.513548,8.919712,17.565292,-0.236696,0.129247,0.128967,7.656000,672.991782

0.005536,1.912557,8.831096,17.562351,0.096382,-0.045819,0.043699,7.660000,672.991782

1.092875,3.921978,7.353368,17.574116,0.143812,0.014135,-0.018654,7.656000,672.991782

-1.843419,-1.145883,6.855204,17.574116,-0.285192,-0.060208,-0.022384,7.656000,672.991782

-3.778595,3.366334,11.568604,17.559410,-0.344080,0.142037,-0.006663,7.652000,672.991782

2.254459,3.007081,10.948293,17.565292,-0.087477,0.006141,0.003729,7.656000,672.991782

2.601737,2.777159,10.375883,17.562351,-0.036849,-0.017307,0.038636,7.652000,672.991782

0.807867,-0.915961,12.833174,17.547646,0.051083,0.086880,0.180127,7.652000,672.991782

-1.419501,2.496942,11.800920,17.547646,-0.130910,0.236631,0.116709,7.652000,22.562129

-1.852999,7.976747,4.053031,17.550587,0.352452,0.180141,-0.027713,7.652000,22.562129

-0.018414,1.967642,6.323510,17.556469,-0.311039,-0.321074,0.022382,7.640000,22.562129

1.574274,0.609666,9.920830,17.538822,-0.071223,0.090610,0.195582,7.640000,22.562129

-0.772846,1.708980,8.205996,17.541763,-0.016865,0.107397,0.037836,7.640000,22.562129

-0.384852,0.715047,10.428574,17.535881,-0.059499,0.043713,-0.142559,7.644000,22.562129

-1.927245,3.622601,10.150752,17.544704,0.025769,0.131645,-0.204378,7.648000,22.562129

-0.528554,3.581886,8.119775,17.553528,0.036694,0.124717,-0.296841,7.644000,22.562129

1.545533,4.942257,9.197534,17.553528,-0.110926,0.143103,-0.355995,7.644000,22.562129

0.927618,4.360267,9.358000,17.535881,-0.097603,0.091143,-0.312828,7.648000,22.562129

1.854491,2.702913,8.172465,17.550587,0.173123,0.126316,-0.435401,7.652000,22.562129

-0.061525,4.077655,8.680209,17.559410,-0.269205,0.194530,-0.548381,7.648000,22.562129

-0.787216,4.791370,7.209667,17.541763,-0.218577,0.165220,-0.607269,7.644000,22.562129

4.426742,-0.777050,12.131433,17.527058,-0.106929,-0.057277,-0.585153,7.648000,22.562129

0.589921,-0.314811,13.915722,17.544704,-0.297716,0.216380,-0.687741,7.640000,22.562129

-2.240993,3.773487,10.236973,17.541763,0.230946,0.398907,-0.436200,7.644000,22.562129

-3.476823,-0.690829,7.348578,17.547646,-0.043777,0.012004,-0.324020,7.644000,22.562129

-2.343978,3.778277,8.098220,17.532940,-0.182071,0.013602,-0.195052,7.640000,22.562129

0.827027,2.413116,8.677814,17.518234,0.036428,0.125783,0.013322,7.640000,22.562129

-1.098568,0.224068,10.275292,17.527058,-0.008604,0.153229,0.146553,7.648000,22.562129

-0.732130,3.907608,10.462104,17.527058,-0.216978,0.184405,0.177196,7.640000,22.562129

-1.256639,4.333922,8.423943,17.529999,0.142746,0.193198,0.048495,7.644000,22.562129

-0.813561,0.042047,10.826147,17.550587,-0.133309,0.033054,0.002130,7.648000,22.562129

-0.150140,3.122042,11.096785,17.529999,-0.008071,0.134310,-0.083671,7.640000,22.562129

-1.903295,1.081485,9.808264,17.529999,0.136351,0.198261,-0.158014,7.644000,22.562129

-1.582362,1.301827,9.307705,17.527058,-0.286791,0.220377,-0.180396,7.648000,22.562129

-1.273405,6.123002,8.653864,17.532940,0.262122,0.311507,-0.389037,7.640000,1428.437304

-1.551227,2.616693,9.769943,17.515293,-0.088276,0.073024,-0.503349,7.640000,1428.437304

-0.868646,5.217684,9.480146,17.535881,-0.071223,0.216647,-0.494023,7.648000,1428.437304

-4.480336,5.109908,12.078742,17.535881,0.000189,0.184405,-0.867870,7.648000,1428.437304

-0.198041,2.997501,8.989167,17.556469,0.245601,-0.316012,-1.049597,7.648000,1428.437304

2.824474,2.944810,6.321115,17.535881,0.193907,-0.162796,-1.058390,7.656000,1428.437304

-0.760870,0.774923,9.331655,17.541763,0.215757,-0.153203,-1.065052,7.652000,1428.437304

-0.748895,2.496942,9.417875,17.547646,0.050284,-0.283237,-0.954736,7.644000,1428.437304

-0.904572,2.542447,10.363909,17.547646,0.147276,-0.261653,-0.866804,7.652000,1428.437304

-2.011071,2.985526,8.498188,17.535881,0.401748,-0.355981,-0.796991,7.652000,1428.437304

-4.425251,3.385494,9.520862,17.535881,0.354051,-0.595797,-0.697867,7.656000,1428.437304

-0.643515,2.631063,8.399992,17.532940,0.412140,-0.663745,-0.421545,7.648000,1428.437304

0.668956,0.942574,11.161449,17.538822,-0.076819,-0.624042,-0.000801,7.652000,1428.437304

-2.379904,2.290970,11.091994,17.538822,0.070002,-0.283770,0.284847,7.648000,1428.437304

-5.778436,3.409444,9.798684,17.524117,0.437187,-0.335996,0.463910,7.652000,1428.437304

-2.794242,0.691097,10.842913,17.538822,0.193641,-0.611252,0.758351,7.644000,1428.437304

-3.898346,3.186707,4.915238,17.529999,0.244002,-0.232342,1.094360,7.644000,1428.437304

-3.876791,3.220237,7.923383,17.541763,-0.109327,-0.323473,1.038136,7.652000,1428.437304

3.332218,4.733890,11.616504,17.527058,-0.136773,-0.449243,0.931552,7.648000,1428.437304

2.527491,4.355477,6.618097,17.532940,0.386826,-0.128689,0.849481,7.656000,1428.437304

-3.850446,3.680081,8.799960,17.535881,-0.085345,-0.287234,0.512672,7.656000,1428.437304

-0.921337,1.859866,9.858560,17.532940,0.035629,-0.267249,0.414348,7.656000,1428.437304

0.886903,3.167547,11.159055,17.529999,-0.205786,-0.208894,0.465509,7.656000,1428.437304

1.674865,3.826177,11.245275,17.529999,0.050817,-0.076995,0.405022,7.648000,1428.437304

0.094152,0.921019,9.781919,17.532940,-0.031786,0.004010,0.322418,7.652000,1428.437304

-2.185907,2.453831,9.844189,17.521175,-0.080283,0.143370,0.267527,7.652000,20.461455

0.956359,4.317157,8.819120,17.538822,0.184048,0.005875,0.259533,7.656000,20.461455

2.515516,2.987921,7.645561,17.538822,0.102244,0.007207,0.293907,7.652000,20.461455

1.238971,1.538934,9.389135,17.527058,-0.065361,0.134310,0.260599,7.656000,20.461455

-1.201554,3.816597,8.979588,17.529999,0.048952,0.249688,0.343735,7.656000,20.461455

-0.892597,1.426368,11.317126,17.527058,0.061209,0.105532,0.358924,7.652000,20.461455

-0.669860,3.917188,8.191626,17.527058,0.255460,0.059434,0.366651,7.656000,20.461455

-1.096173,1.989197,8.962822,17.521175,-0.179940,0.048509,0.415147,7.652000,20.461455

-3.857631,1.658685,10.143566,17.538822,-0.064295,0.153229,0.654963,7.648000,20.461455

-3.325936,1.570069,9.595107,17.529999,-0.009404,0.138307,0.793524,7.652000,20.461455

-3.927086,2.803504,10.802197,17.529999,-0.089875,0.103667,0.730905,7.648000,20.461455

-3.740275,4.614139,10.007051,17.518234,0.006318,0.231302,0.636844,7.644000,20.461455

-3.575018,3.545960,7.925778,17.518234,-0.025125,0.140705,0.589147,7.652000,20.461455

-3.416947,2.547237,8.577224,17.527058,-0.131443,0.041314,0.436464,7.648000,20.461455

-1.627867,0.880304,11.808105,17.535881,0.010315,-0.060741,0.337607,7.652000,20.461455

-0.662675,1.902977,8.958032,17.535881,-0.046975,0.005076,0.294973,7.656000,20.461455

0.007931,0.973709,8.617939,17.521175,-0.001410,-0.039957,0.223028,7.648000,20.461455

-0.495023,2.429881,10.684841,17.538822,-0.056035,0.032255,0.132963,7.648000,20.461455

0.680931,0.741392,8.404782,17.515293,-0.016865,0.045045,0.045297,7.652000,20.461455

-1.735643,0.956944,10.083691,17.497646,-0.322497,0.135909,-0.114314,7.648000,20.461455

-0.159721,5.610467,9.896879,17.521175,0.137417,0.029057,-0.240350,7.648000,20.461455

0.216298,1.392838,7.774892,17.503529,0.063874,-0.016241,-0.269128,7.644000,20.461455

0.680931,0.810848,9.841794,17.527058,-0.154359,-0.152670,-0.335744,7.652000,20.461455

0.542020,3.912398,10.019026,17.535881,0.030566,-0.098312,-0.288314,7.644000,20.461455

0.867743,1.668265,6.761798,17.512352,-0.018463,-0.072465,-0.180663,7.640000,20.461455

0.070201,0.964129,12.260764,17.521175,-0.173811,-0.045286,-0.040770,7.652000,20.471983

1.794616,3.411839,13.130156,17.515293,0.318079,-0.038891,0.145487,7.652000,20.471983

1.037789,5.404496,7.439589,17.518234,0.046820,0.025593,0.095392,7.656000,20.471983

-2.506840,1.471873,8.320956,17.527058,-0.065894,-0.053013,0.181993,7.652000,20.471983

-1.900900,4.264466,8.376042,17.488823,-0.006206,0.034653,0.376777,7.660000,20.471983

-0.130980,1.565279,10.395043,17.506470,-0.159688,0.010671,0.261398,7.656000,20.471983

0.563575,4.115975,10.890813,17.515293,-0.008604,0.173746,0.338406,7.656000,20.471983

0.642611,4.094420,6.467211,17.506470,-0.075753,0.277933,0.356792,7.660000,20.471983

-1.869765,0.477940,9.520862,17.515293,-0.282261,0.256883,0.319487,7.656000,20.471983

1.399437,-0.104050,12.905025,17.503529,0.411341,0.064763,0.298703,7.664000,20.471983

-0.904572,0.130662,9.520862,17.521175,-0.054969,0.260080,0.307496,7.660000,20.471983

-2.502050,4.736285,6.555827,17.524117,0.120897,0.303247,0.259000,7.664000,20.471983

0.568365,2.451436,8.040739,17.509411,0.074799,0.135376,0.305631,7.656000,20.471983

0.106127,4.460858,10.648915,17.503529,0.183782,0.309909,0.532391,7.652000,20.471983

-0.382457,0.633617,11.288386,17.506470,0.091586,0.182806,0.477233,7.660000,20.471983

1.262921,4.386612,8.804750,17.524117,0.048419,0.296852,0.409818,7.656000,20.471983

-1.582362,2.403536,5.631349,17.506470,0.211494,0.345348,0.228357,7.652000,20.471983

-2.655331,2.149664,8.131750,17.521175,-0.287324,0.059700,0.049294,7.644000,20.471983

0.834213,2.810689,9.211904,17.512352,0.002054,0.231302,0.192918,7.648000,20.471983

-0.420778,0.523446,11.020144,17.506470,-0.232433,0.256083,0.113512,7.640000,20.471983

-0.780031,4.997342,8.905341,17.518234,0.093717,0.302981,-0.042635,7.652000,20.471983

-2.173932,0.892279,9.259805,17.503529,-0.182871,0.134843,-0.074078,7.644000,20.471983

-2.214647,5.428446,9.393926,17.515293,0.098780,0.194264,-0.153484,7.644000,20.471983

-1.093778,4.882381,9.377160,17.506470,0.054281,0.147100,-0.272592,7.644000,20.471983

-1.062643,-0.810580,8.349697,17.509411,-0.046175,-0.061007,-0.362124,7.640000,20.471983

-1.766779,1.852681,10.426179,17.529999,-0.324362,0.117789,-0.308032,7.652000,20.471983

-1.000372,4.252491,9.470566,17.518234,-0.089076,0.170016,-0.231824,7.640000,20.545559

0.980309,1.397628,9.058622,17.512352,-0.029655,0.024527,-0.224096,7.648000,20.545559

-0.660280,2.039493,9.408296,17.512352,-0.210050,0.035719,-0.313095,7.636000,20.545559

-0.183671,1.452713,10.440549,17.518234,0.085990,0.001345,-0.341873,7.640000,20.545559

-0.667465,-0.880036,9.956755,17.515293,0.009249,-0.073797,-0.365854,7.636000,20.545559

-1.263825,2.360425,9.686118,17.515293,0.050817,-0.018373,-0.344537,7.644000,20.545559

-0.760870,3.270533,9.559182,17.518234,0.114501,-0.007715,-0.177465,7.652000,20.545559

-1.637448,3.409444,7.897038,17.512352,0.180851,-0.013577,-0.043701,7.644000,20.545559

-1.077013,1.445528,7.204877,17.529999,0.067071,-0.021304,0.007460,7.644000,20.545559

-1.199159,3.138807,8.514953,17.506470,0.011380,-0.023169,0.086599,7.640000,20.545559

-0.823141,2.154454,8.086245,17.515293,0.003120,-0.010912,0.079937,7.644000,20.545559

-1.182394,2.863380,10.241762,17.506470,-0.057367,-0.028232,0.026378,7.636000,20.545559

-0.528554,3.560330,10.287268,17.527058,0.065739,-0.041555,-0.012792,7.636000,20.545559

-0.042365,1.359308,10.045371,17.506470,-0.015799,-0.053013,-0.041569,7.640000,20.545559

-0.121400,4.216566,9.585527,17.512352,0.025769,0.004010,-0.002932,7.636000,20.545559

0.383949,2.099368,10.725556,17.529999,-0.009670,0.009073,0.205175,7.640000,20.545559

0.970729,3.486085,8.965217,17.512352,0.038826,0.079419,0.272323,7.632000,20.545559

-0.614774,2.849010,7.930568,17.521175,-0.025391,0.175612,0.365052,7.632000,20.545559

-1.474586,3.280113,7.698251,17.506470,-0.210849,0.122586,0.455916,7.640000,20.545559

-0.665070,3.371124,10.119617,17.509411,-0.139171,0.139906,0.387435,7.636000,20.545559

-0.803981,1.874237,9.911250,17.509411,0.010048,0.156959,0.163340,7.636000,20.545559

-1.546437,-0.295651,10.047766,17.506470,-0.234564,0.210252,0.017319,7.632000,20.545559

-1.065038,0.796478,10.351933,17.512352,-0.199658,0.287259,-0.122841,7.632000,20.545559

-0.174091,1.241951,11.094389,17.506470,-0.151695,0.249955,-0.383707,7.632000,20.545559

-0.432753,1.931717,8.297007,17.503529,0.002587,0.186803,-0.732507,7.632000,20.545559

-0.413593,1.639525,8.622729,17.497646,-0.043777,0.192932,-0.808715,7.628000,20.545559

-1.242269,3.811807,10.007051,17.509411,-0.116522,0.212650,-0.713321,7.636000,19.259647

-2.789452,2.132899,11.348262,17.515293,0.024704,0.185737,-0.605138,7.632000,19.259647

-2.006281,0.566556,10.792617,17.515293,0.083858,0.068494,-0.676550,7.636000,19.259647

-2.207462,2.247860,9.540022,17.503529,-0.008071,-0.042621,-0.689606,7.632000,19.259647

0.221088,3.632181,9.616662,17.506470,-0.000077,-0.004517,-0.488694,7.632000,19.259647

0.645006,1.910162,9.360395,17.500587,0.060143,0.038650,-0.361857,7.628000,19.259647

-2.456544,1.718560,9.276569,17.494705,0.054547,-0.011445,-0.360792,7.636000,19.259647

-3.318751,0.791688,7.887458,17.521175,0.030033,0.009605,-0.440197,7.632000,19.259647

-2.200277,2.202354,9.949570,17.509411,-0.059232,-0.032496,-0.442862,7.628000,19.259647

-1.900900,3.701637,8.615544,17.521175,0.167794,0.058901,-0.436733,7.632000,19.259647

-2.411039,2.868170,7.832372,17.509411,0.044688,-0.090052,-0.466844,7.628000,19.259647

-0.993187,2.044283,9.168794,17.524117,-0.064028,-0.158266,-0.451655,7.628000,19.259647

-0.777636,2.204749,10.972243,17.497646,0.067604,-0.204097,-0.429272,7.628000,19.259647

-1.091383,0.691097,9.358000,17.506470,0.105708,-0.158266,-0.446326,7.624000,19.259647

-2.554740,0.521051,10.438154,17.506470,0.119298,-0.191840,-0.412752,7.624000,19.259647

-2.303263,1.328172,8.644284,17.506470,0.152339,-0.197169,-0.192121,7.624000,19.259647

-3.843261,0.748577,7.829977,17.506470,0.037227,-0.193172,0.041034,7.620000,19.259647

-4.259994,0.853958,9.844189,17.500587,0.006051,-0.237405,0.146287,7.620000,19.259647

-2.719996,2.439461,10.692026,17.494705,0.146210,-0.219019,-0.018654,7.612000,19.259647

-1.510512,0.303104,8.723320,17.518234,0.117965,-0.249130,-0.000534,7.616000,19.259647

-2.042206,3.910003,9.149633,17.518234,-0.143168,-0.352784,0.167604,7.608000,19.259647

-1.730853,3.701637,11.000983,17.512352,0.140881,-0.255791,0.172933,7.608000,19.259647

-0.497418,0.528236,9.425060,17.509411,0.069736,-0.325338,0.089797,7.608000,19.259647

-0.653095,2.140084,8.991562,17.527058,-0.014999,-0.095381,0.105784,7.616000,19.259647

-1.567992,2.777159,9.666958,17.518234,0.011913,-0.134551,0.120173,7.604000,19.259647

-0.964447,4.274046,7.897038,17.529999,0.059077,-0.184379,0.219297,7.612000,19.259647

-0.229176,0.087552,8.292216,17.518234,0.015111,-0.266450,0.293107,7.608000,19.259647

-1.194369,2.422696,10.174702,17.509411,-0.042978,-0.139347,0.236884,7.604000,19.259647

-2.346373,2.513707,9.731624,17.527058,0.187246,-0.121228,0.272856,7.608000,19.259647

-0.499813,0.667147,8.541298,17.527058,-0.128246,-0.181715,0.395163,7.604000,18.162370

-2.094896,4.034544,10.179492,17.515293,-0.006206,-0.016241,0.449787,7.604000,18.162370

-1.321305,2.470596,9.719648,17.515293,0.080394,-0.053546,0.345068,7.612000,18.162370

-0.928522,0.978499,9.120893,17.503529,-0.028322,-0.098312,0.241147,7.604000,18.162370

-0.229176,3.416629,8.708950,17.500587,0.082792,-0.029032,0.158810,7.600000,18.162370

-0.116610,1.644315,8.804750,17.518234,0.015910,0.042380,0.068213,7.604000,18.162370

0.877323,3.749537,8.598779,17.524117,0.035629,-0.072998,0.033306,7.604000,18.162370

1.210231,2.518497,8.732900,17.512352,0.040958,0.031455,-0.130568,7.604000,18.162370

-1.467401,2.643038,8.615544,17.509411,-0.058433,0.015734,-0.139894,7.596000,18.162370

0.908458,-1.320719,10.407019,17.503529,-0.087211,-0.099111,-0.115646,7.592000,18.162370

-2.102081,1.948482,10.344748,17.509411,-0.032852,0.144169,-0.065551,7.592000,18.162370

-2.231412,2.101763,10.428574,17.503529,-0.036050,0.101535,0.068213,7.592000,18.162370

-2.420619,2.913675,10.797407,17.506470,-0.042711,-0.050349,0.055956,7.584000,18.162370

-0.969237,2.343660,9.645403,17.521175,0.132887,0.007740,-0.062354,7.588000,18.162370

-0.301027,3.057376,8.079060,17.503529,-0.046975,0.004543,-0.013857,7.596000,18.162370

-0.787216,3.035821,8.991562,17.515293,-0.029388,-0.013044,0.194783,7.588000,18.162370

-0.351322,3.931558,9.516071,17.515293,0.022838,0.070092,0.224094,7.592000,18.162370

0.692906,1.756881,9.159214,17.497646,-0.031786,-0.001586,0.317089,7.596000,18.162370

-0.332162,2.029913,10.785432,17.497646,0.050284,0.025060,0.140957,7.592000,18.162370

0.146842,2.743629,9.892090,17.506470,0.064140,-0.016774,-0.038638,7.588000,18.162370

1.351537,3.363939,7.116261,17.494705,-0.014466,0.023195,-0.035441,7.592000,18.162370

-0.602799,2.666988,8.627519,17.494705,-0.158090,0.054105,0.112179,7.588000,18.162370

0.199532,2.336475,9.398716,17.497646,-0.030188,0.112993,-0.040504,7.588000,18.162370

-0.760870,0.820428,10.818962,17.488823,-0.105064,0.081284,-0.176133,7.592000,18.162370

-1.182394,2.295760,9.099339,17.491764,0.016443,0.171881,-0.191854,7.592000,18.162370

-1.979935,1.400023,9.997471,17.506470,-0.003541,0.112726,-0.190788,7.592000,18.162370

-3.299591,1.548514,9.547207,17.488823,-0.051505,0.062365,-0.225429,7.588000,18.162370

-0.957262,0.283944,9.149633,17.488823,0.037227,-0.053813,-0.234488,7.588000,18.218200

-1.790729,2.022728,10.112432,17.488823,-0.104797,-0.044486,-0.191055,7.584000,782.344887

-0.542924,2.358031,10.505215,17.485882,0.110505,-0.023702,-0.032510,7.588000,677.887083

-0.059130,0.164193,10.366303,17.512352,-0.099201,-0.072465,0.027711,7.588000,633.333626

-0.945287,2.650223,10.189072,17.497646,0.016443,0.058368,0.103919,7.568000,1688.658543

-1.294960,1.644315,10.193862,17.491764,-0.132509,0.033321,0.171601,7.564000,1571.685240

-2.602640,1.991592,11.034513,17.509411,-0.105064,0.051440,0.163340,7.572000,2234.965240

-1.067433,3.330408,9.899275,17.480000,0.084658,0.136442,0.060219,7.564000,1764.177309

-1.867369,1.843101,8.392807,17.488823,-0.029655,-0.015176,0.040501,7.568000,2270.040884

-0.095055,1.589229,10.253737,17.485882,-0.037915,-0.069800,-0.023983,7.564000,2754.034092

0.530045,2.920860,10.445339,17.485882,0.134753,0.023195,-0.036507,7.572000,1750.389464

0.242643,1.514984,10.304033,17.477058,-0.049107,0.057569,0.076740,7.568000,1866.376249

-2.399064,2.870565,9.650192,17.503529,0.166995,0.146567,0.043965,7.576000,2765.001905

-1.294960,0.973709,9.429851,17.497646,-0.010736,-0.014376,-0.011459,7.576000,2747.495018

-0.856671,3.239398,9.051437,17.485882,0.157135,0.096472,-0.168939,7.580000,2737.204800

0.257013,2.427486,8.433522,17.500587,0.050817,0.057036,-0.284050,7.572000,2112.557293

-0.990792,1.548514,8.740085,17.485882,-0.023260,0.122852,-0.474038,7.560000,2158.196905

-0.741710,2.791529,7.909013,17.485882,0.107840,-0.012244,-0.616862,7.568000,2755.673628

-1.414711,0.753367,8.926897,17.480000,-0.075486,-0.005849,-0.565435,7.552000,2758.958844

-2.238597,0.171378,10.696816,17.488823,-0.098136,-0.014643,-0.520669,7.552000,2122.568039

-0.315397,3.177127,10.500424,17.494705,0.070802,0.034919,-0.561971,7.548000,2090.296429

-0.581244,2.096973,9.532837,17.485882,0.074266,0.017599,-0.429006,7.540000,1770.024168

-1.759594,0.535421,9.492122,17.488823,-0.031254,-0.116431,-0.273125,7.536000,1846.766865

-1.912875,2.216724,10.979428,17.509411,0.006051,-0.102309,-0.317891,7.540000,2752.942057

-2.279313,1.131781,9.571157,17.491764,0.072667,-0.086055,-0.337343,7.536000,2645.929814

1.353932,2.717283,7.928173,17.485882,0.055347,-0.116431,-0.245946,7.520000,1657.021411

0.400714,2.152059,9.853769,17.512352,-0.046975,-0.105506,-0.222497,7.524000,1388.167501

-1.323700,3.572305,8.843071,17.515293,0.014844,-0.026367,-0.170004,7.528000,1820.138920

-1.714088,2.173614,9.422666,17.512352,0.011380,-0.081791,-0.149753,7.520000,1538.085877

-0.145350,3.052586,9.070598,17.488823,0.010315,-0.145742,-0.218767,7.524000,1538.085877

0.110917,2.231094,9.408296,17.518234,-0.026457,-0.136150,-0.212638,7.528000,1538.085877

0.309703,0.434830,10.672866,17.509411,0.021772,-0.154269,-0.197450,7.512000,1538.085877

-0.195646,3.033426,10.493239,17.521175,-0.082414,-0.121228,-0.161478,7.512000,1538.085877

-0.087870,2.573582,9.932805,17.527058,0.044422,-0.101776,-0.009594,7.496000,1538.085877

-1.934430,-0.209430,10.181887,17.509411,-0.122650,-0.150805,0.098590,7.488000,1538.085877

-1.848209,0.693492,8.938871,17.538822,0.073733,-0.138548,-0.016256,7.492000,1538.085877

-0.281867,0.887489,9.544811,17.518234,-0.038714,-0.137482,0.044764,7.492000,1538.085877

-0.380062,1.737720,8.761641,17.532940,-0.077618,-0.034361,0.067680,7.492000,1538.085877

-1.611102,2.999896,10.126801,17.544704,0.039892,-0.001586,0.110581,7.488000,1538.085877

