ax,ay,az,gx,gy,gz,temp,volt,vel

-0.638724,2.940020,9.089758,15.382940,0.003387,-0.042088,0.026378,3.000000,0.000000

-0.578849,2.875355,9.255014,15.377058,-0.001410,-0.014376,0.023181,2.932000,0.000000

-0.835116,2.798714,9.061018,15.400587,0.006051,-0.021571,0.014654,2.892000,0.000000

-0.839906,2.856194,9.118498,15.400587,0.000455,-0.029032,0.012789,2.856000,0.000000

-0.679440,2.887330,9.300520,15.406469,0.002587,-0.039157,0.002397,2.820000,0.000000

-0.166906,3.066956,9.190349,15.394705,0.000988,-0.029565,-0.008262,2.784000,0.000000

-0.473468,2.837034,9.190349,15.418234,-0.005140,-0.012511,0.005328,2.740000,0.000000

-0.588429,2.669383,9.096943,15.415293,-0.001143,-0.031163,0.010391,2.708000,0.000000

-0.557294,2.904095,9.243039,15.424116,0.003653,-0.014643,0.001065,2.668000,0.000000

-0.547714,3.107671,9.238249,15.427057,0.002321,-0.022637,-0.011193,2.636000,0.000000

-0.406408,3.009476,9.089758,15.429998,-0.011269,-0.015975,0.007993,2.600000,0.000000

-0.401617,2.772369,9.228669,15.456469,0.001255,-0.016508,0.000532,2.532000,0.000000

-0.904572,2.942415,9.099339,15.447645,-0.000877,-0.006915,0.014388,2.484000,0.000000

-0.547714,2.911280,9.173584,15.462351,-0.009137,-0.020505,0.023181,2.452000,0.000000

-0.607589,2.786739,9.171188,15.474117,-0.005407,-0.006382,0.015187,2.420000,0.000000

-0.650700,2.825059,9.144843,15.474117,-0.000344,-0.016508,-0.002399,2.384000,0.000000

-0.660280,2.698123,9.185558,15.485882,-0.005407,-0.018906,-0.014124,2.348000,0.000000

-0.660280,2.707703,9.305309,15.482941,-0.005940,-0.013843,-0.034641,2.320000,0.000000

-0.590824,2.827454,9.255014,15.503529,0.000455,-0.022104,-0.039171,2.280000,0.000000

-0.463888,2.760394,9.214299,15.485882,0.004452,-0.019439,-0.017588,2.252000,0.000000

-0.636329,2.779554,9.238249,15.491764,-0.003541,-0.012244,0.007993,2.220000,0.000000

-0.734525,2.841825,9.140054,15.497646,0.004719,-0.022637,0.017319,2.180000,0.000000

-0.502208,2.951995,9.266990,15.491764,0.003120,-0.017574,0.028244,2.148000,0.000000

-0.485443,2.837034,9.209509,15.503529,0.001521,-0.022903,0.043432,2.116000,0.000000

-0.475863,2.729259,9.243039,15.509411,0.003120,-0.015975,0.029576,2.080000,0.000000

-0.289052,2.793924,9.262199,15.512352,0.002854,-0.016241,0.004262,2.056000,0.000000

-0.178881,2.971155,9.142448,15.524117,0.002854,-0.001586,0.001331,2.024000,0.000000

-0.586034,3.009476,9.255014,15.518234,-0.003275,0.002411,0.009858,1.996000,0.000000

-0.677045,2.916070,9.235854,15.532940,0.000189,-0.008780,0.008525,1.968000,0.000000

-0.641119,2.849010,9.111313,15.524117,-0.000610,-0.004784,-0.002399,1.940000,0.000000

-0.650700,2.834639,9.166399,15.524117,-0.003808,-0.006649,-0.008795,1.908000,0.000000

-0.530949,2.930440,9.192744,15.532940,0.000988,-0.002652,-0.006396,1.876000,0.000000

-0.729735,2.827454,9.192744,15.547646,0.000988,-0.012511,0.003729,1.844000,0.000000

-0.471073,2.880145,9.118498,15.547646,-0.002476,-0.016774,0.015720,1.820000,0.000000

-0.609984,2.839429,9.156818,15.556469,-0.001676,-0.009846,0.017852,1.768000,0.000000

-0.375272,3.014266,9.111313,15.550587,-0.002476,-0.009047,0.015453,1.740000,0.000000

-0.576454,3.078931,9.278965,15.553528,-0.001410,0.005076,0.011989,1.712000,0.000000

-0.420778,2.961576,9.104128,15.571175,-0.005140,-0.011712,0.008525,1.688000,0.000000

-0.334557,2.760394,9.185558,15.559410,-0.013134,0.000546,-0.006663,1.664000,0.000000

-0.399222,2.784344,9.159214,15.568233,-0.011535,0.006941,-0.030112,1.636000,0.000000

-0.315397,3.023846,9.094548,15.588821,-0.002209,0.005875,-0.035707,1.616000,0.000000

-0.890202,2.937625,9.209509,15.571175,-0.002476,0.003477,-0.007462,1.584000,0.000000

-0.631539,2.844219,9.123288,15.582939,-0.007272,-0.006382,0.008259,1.556000,0.000000

-0.602799,2.813084,9.171188,15.577057,-0.010469,0.002144,0.009058,1.532000,0.000000

-0.509393,2.849010,9.123288,15.585880,-0.002742,-0.008514,0.005594,1.512000,0.000000

-0.480653,3.019056,9.245434,15.597647,-0.008871,0.008273,0.014121,1.484000,0.000000

-0.624354,2.913675,9.286150,15.574116,-0.003275,0.000546,0.020783,1.464000,0.000000

-0.401617,2.738839,9.226274,15.588821,-0.011002,0.003477,0.020250,1.428000,0.000000

-0.506998,2.746024,9.278965,15.600588,-0.006473,0.002944,-0.015190,1.396000,0.000000

-0.523764,2.753209,9.185558,15.600588,0.001255,0.002944,-0.041303,1.372000,0.000000

-0.758475,2.810689,9.197534,15.606470,-0.003808,0.008540,-0.053827,1.348000,0.000000

-0.995582,2.906490,9.214299,15.609411,-0.003808,-0.006649,-0.052494,1.320000,0.000000

-0.859066,2.793924,9.209509,15.579998,0.002321,-0.021837,-0.040237,1.296000,0.000000

-0.911757,2.714888,9.269384,15.606470,0.000722,-0.015442,-0.029046,1.272000,0.000000

-0.602799,2.774764,9.178373,15.612352,0.004985,-0.037292,-0.011992,1.252000,0.000000

-0.538134,2.652618,9.197534,15.615294,0.002321,-0.019972,-0.000001,1.232000,0.000000

-0.420778,2.767579,9.281360,15.609411,0.009515,-0.030630,-0.004798,1.212000,0.000000

-0.399222,2.849010,9.216694,15.618235,0.011913,-0.023702,-0.009328,1.196000,0.000000

-0.495023,2.772369,9.262199,15.618235,0.011913,-0.023969,-0.004265,1.180000,0.000000

-0.679440,2.738839,9.219090,15.594706,0.010315,-0.026900,0.001065,1.164000,0.000000

-0.586034,2.722074,9.171188,15.606470,0.012180,-0.029298,0.017585,1.152000,0.000000

-0.605194,2.650223,9.187954,15.635881,0.018308,-0.029032,0.054623,1.132000,0.000000

-0.835116,2.781949,9.159214,15.647646,0.022039,-0.038624,0.063150,1.124000,0.000000

-0.437543,3.026241,9.144843,15.647646,0.027368,-0.041022,0.071677,1.112000,0.000000

-0.502208,2.992711,9.192744,15.650587,0.015910,-0.039157,0.071677,1.104000,0.000000

-0.190856,2.985526,9.077783,15.647646,0.012713,-0.046618,0.079671,1.092000,0.000000

-0.212411,2.786739,9.147239,15.635881,0.012979,-0.027966,0.100455,1.084000,0.000000

0.082176,2.822664,9.568762,15.656469,-0.004074,0.007474,0.043166,1.072000,0.000000

-0.066315,2.607113,9.381950,15.659410,-0.002476,-0.043954,0.018918,1.064000,0.000000

1.114430,3.138807,8.471843,15.641764,0.021506,-0.010379,-0.000001,1.060000,0.000000

-1.582362,2.781949,9.494516,15.659410,0.027901,-0.009047,-0.041037,1.052000,0.000000

1.181490,3.589071,8.902946,15.650587,-0.001143,-0.023436,0.009325,1.044000,0.000000

0.724042,3.268138,9.130473,15.656469,-0.009670,0.026659,-0.000001,1.036000,0.000000

-1.500932,2.683753,8.737690,15.650587,-0.053636,0.127115,0.129499,1.028000,0.000000

-1.242269,2.683753,9.458591,15.662352,-0.002476,-0.029032,0.231555,1.020000,0.000000

0.125287,2.678963,9.348420,15.665293,-0.005407,0.002144,0.158810,1.016000,0.000000

1.332377,3.076536,9.487331,15.671175,-0.011269,0.022662,0.035172,1.012000,0.000000

0.714462,3.169942,9.070598,15.665293,-0.028855,0.098604,0.001864,1.008000,0.000000

-1.199159,2.372401,8.960427,15.659410,-0.021927,0.049841,-0.018654,1.004000,0.000000

0.019906,3.054981,9.334050,15.656469,-0.005673,0.032521,-0.022384,1.000000,0.000000

0.451009,2.729259,9.293335,15.665293,-0.050172,0.091143,0.013855,0.992000,0.000000

-1.726063,2.765184,8.900552,15.650587,-0.011802,0.070892,0.018918,0.992000,0.000000

-1.400341,2.597533,9.372371,15.665293,-0.017131,0.056503,-0.135364,0.988000,0.000000

-0.729735,3.462135,9.319680,15.671175,-0.001143,-0.000254,-0.273925,0.984000,0.000000

0.630636,4.039334,8.684999,15.653528,-0.003009,0.049308,-0.232890,0.980000,0.000000

-0.559689,3.893238,8.967612,15.677057,-0.007005,0.044512,-0.150020,0.980000,0.000000

-1.402736,3.545960,8.656260,15.674116,0.027635,0.002144,-0.091398,0.972000,0.000000

-2.202672,3.605836,8.572433,15.662352,-0.010469,0.005609,-0.035974,0.972000,0.000000

-1.366810,3.871683,9.056228,15.679998,0.013779,-0.039157,0.068746,0.968000,0.000000

-0.677045,4.369847,9.458591,15.677057,0.029233,-0.021571,0.094326,0.964000,0.000000

-0.202831,3.237003,8.620334,15.665293,0.023638,0.016001,0.047429,0.964000,0.000000

-0.691415,3.287298,8.349697,15.674116,0.048152,-0.039957,0.043699,0.960000,0.000000

-0.415988,3.124437,8.974797,15.682940,-0.077884,-0.019705,0.004529,0.960000,0.000000

-1.579967,4.386612,9.089758,15.665293,0.067338,0.014935,0.015986,0.960000,0.000000

-0.339347,3.471714,8.306586,15.653528,-0.037649,-0.019705,0.107383,0.952000,0.000000

-1.673373,4.336317,8.943662,15.662352,0.066272,-0.007981,0.274189,1.024000,0.000000

0.137262,3.763907,8.004814,15.685881,-0.026457,-0.021304,0.299769,1.444000,0.000000

0.089361,4.365057,8.337722,15.656469,-0.079217,-0.007715,0.383971,1.412000,0.000000

-1.280590,5.438026,9.125683,15.662352,-0.009137,0.093541,0.443659,1.616000,0.000000

-1.005162,4.451278,8.713739,15.682940,-0.016332,0.030390,0.387702,1.752000,0.000000

-0.815956,3.078931,8.728109,15.665293,-0.017664,0.013602,0.345601,2.516000,0.000000

-0.437543,3.716007,9.001143,15.665293,-0.003009,-0.002652,0.270458,3.180000,0.000000

1.341957,2.688543,9.120893,15.682940,-0.119719,0.046111,0.241947,3.352000,0.000000

1.004259,4.044125,8.452682,15.679998,0.113436,0.174013,0.307763,4.024000,0.000000

-0.665070,3.553145,7.226432,15.665293,-0.122117,0.153495,0.293107,3.988000,0.000000

-1.560807,3.854918,8.981982,15.694704,-0.113058,0.179342,0.098323,4.236000,0.000000

-1.251849,4.544683,10.256132,15.674116,0.033497,0.169483,-0.180929,4.736000,0.000000

-1.864974,4.980577,8.093430,15.688822,0.020174,0.058102,-0.402626,4.956000,0.000000

-1.500932,3.359149,9.350815,15.677057,-0.047508,0.015201,-0.493756,5.416000,0.000000

0.630636,5.756564,10.974638,15.682940,-0.060031,0.035452,-0.397563,5.504000,0.000000

0.498910,1.919742,6.079218,15.688822,-0.129045,0.120720,-0.276323,5.856000,0.000000

0.944383,2.216724,9.084968,15.694704,-0.204987,0.021330,-0.355196,5.956000,0.000000

1.504818,4.590189,10.972243,15.691763,0.186446,0.221976,-0.464978,6.240000,0.000000

-1.132098,3.198682,7.432404,15.691763,-0.234298,0.294720,-0.585419,6.176000,0.000000

-4.944970,4.259676,9.075388,15.685881,-0.239094,0.317103,-0.516939,6.316000,0.000000

-3.143915,3.371124,7.559340,15.679998,0.039625,-0.050349,-0.458850,6.256000,0.000000

-3.290011,2.928045,8.117380,15.697645,-0.325961,-0.119362,-1.000035,6.504000,0.000000

-3.407367,2.966366,12.706238,15.697645,-0.024059,0.116190,-1.432770,6.964000,0.000000

-7.167548,1.972432,5.051754,15.697645,0.058811,0.012270,-1.542819,6.952000,0.000000

-9.703874,3.555540,8.876601,15.703527,0.119031,-0.381561,-1.705361,7.160000,0.000000

-3.639684,6.637931,11.717094,15.694704,0.042557,-0.583807,-1.333380,7.200000,0.000000

-3.397787,5.461976,7.676696,15.697645,0.031898,-0.458036,-0.300571,7.224000,0.000000

-2.399064,2.487362,6.603727,15.700586,0.184048,-0.595797,0.335741,7.272000,0.000000

-2.173932,7.986326,10.445339,15.703527,0.261056,-0.583807,0.867601,7.260000,0.000000

4.208795,2.274205,8.651469,15.712351,-0.246555,-0.628306,1.248109,7.252000,0.000000

2.034117,2.825059,8.500583,15.718235,0.147543,-0.274444,1.843386,7.276000,0.000000

-0.351322,1.148546,5.959467,15.712351,0.091852,-0.161197,1.872964,7.296000,0.000000

-0.114215,3.756722,7.441984,15.703527,-0.051505,-0.116165,1.554008,7.276000,0.000000

3.159777,1.371283,11.302756,15.682940,-0.309174,-0.072465,1.215867,7.288000,0.000000

0.779127,1.115016,12.833174,15.691763,0.072667,0.132445,0.895579,7.280000,0.000000

-0.914152,2.779554,5.530758,15.706469,0.169393,0.053572,0.448988,7.276000,0.000000

1.325192,-3.514557,9.717253,15.709410,-0.270004,-0.094048,0.258467,7.236000,0.000000

0.508490,-0.441747,9.314890,15.706469,-0.198592,0.214515,0.421009,7.236000,0.000000

2.944225,7.892920,10.639336,15.718235,0.189644,0.251020,0.330679,7.236000,0.000000

-0.257916,0.118687,8.332932,15.715292,-0.108528,-0.025834,0.149751,7.212000,0.000000

-1.946405,0.070787,11.630874,15.712351,0.044688,-0.035693,0.086066,7.224000,0.000000

1.672469,3.986644,8.304192,15.715292,0.076397,0.099137,0.170268,7.216000,0.000000

-0.609984,3.605836,8.555669,15.709410,0.007916,0.112726,0.286979,7.236000,0.000000

0.666561,2.310130,9.386741,15.721176,-0.075486,-0.073264,0.400758,7.212000,0.000000

2.484381,-1.009367,11.072834,15.703527,0.124094,-0.028232,0.474568,7.248000,0.000000

1.286871,6.716966,7.430009,15.709410,0.267184,0.119122,0.382639,7.256000,0.000000

1.164725,-3.083454,8.855046,15.727058,0.193108,0.159091,0.613662,7.224000,0.000000

-0.219596,1.440738,8.816726,15.721176,-0.187134,0.076754,0.365319,7.208000,0.000000

0.292938,-2.168556,10.579460,15.715292,-0.088276,0.347746,0.102853,7.192000,0.000000

3.269948,-1.361435,10.442944,15.706469,0.218155,0.404236,0.104718,7.204000,0.000000

3.588485,2.197564,8.704160,15.727058,0.022039,0.539866,0.046363,7.140000,0.000000

-6.178404,6.491835,12.548166,15.735882,0.674339,0.996316,0.032507,6.996000,0.000000

3.950133,-4.937199,6.929450,15.735882,-0.740577,-0.685329,-0.581689,6.904000,0.000000

-7.802228,5.936190,9.769943,15.712351,0.848872,0.775685,-0.356528,6.816000,0.000000

2.230509,2.908885,8.828701,15.724117,-0.103731,0.001878,-0.368253,6.864000,0.000000

-2.509235,1.083880,9.990285,15.730000,-0.012068,0.152429,-0.660029,6.772000,0.000000

1.018629,4.863221,8.546088,15.727058,0.124361,0.081284,-0.996305,6.980000,0.000000

0.958754,2.504127,9.492122,15.756470,-0.131443,-0.009580,-0.994706,6.952000,0.000000

0.980309,1.594019,8.536509,15.762352,0.093184,0.226506,-0.898513,6.852000,0.000000

-2.276918,1.112620,11.080019,15.753529,-0.073355,0.136175,-0.746629,6.788000,0.000000

-1.771569,3.639366,10.361513,15.771175,-0.026457,0.113526,-0.612066,6.728000,0.000000

-2.212252,6.506205,8.146120,15.747646,0.298094,0.215314,-0.521735,6.824000,0.000000

-2.712811,3.502850,6.601332,15.765293,-0.200191,-0.155335,-0.438865,6.984000,0.000000

-2.116452,5.155414,9.856164,15.782940,0.104642,-0.036493,-0.467909,7.076000,0.000000

-2.027836,4.903936,8.608358,15.782940,-0.013933,-0.111102,-0.551312,7.108000,0.000000

-1.606312,4.999737,8.756850,15.759411,-0.006473,-0.155601,-0.566767,7.168000,0.000000

1.138380,5.763749,9.238249,15.785881,0.083325,-0.109237,-0.277922,7.228000,0.000000

-0.993187,9.030555,9.523256,15.782940,-0.050172,0.021063,0.148951,7.228000,0.000000

-1.618287,1.555699,6.953400,15.797646,0.052416,-0.255258,0.638176,7.240000,0.000000

-0.990792,4.503968,10.066926,15.806469,0.059877,-0.112701,0.863870,7.272000,0.000000

-0.526159,7.895316,6.879155,15.806469,0.034030,-0.020505,1.010158,7.280000,0.000000

2.640057,-0.168715,9.231064,15.832939,-0.022993,-0.272845,1.127934,7.284000,0.000000

-3.874396,7.888131,9.726833,15.800587,0.180318,0.431416,0.990973,7.312000,0.000000

-4.355795,-0.058544,8.404782,15.809410,-0.035517,-0.002652,0.827098,7.324000,0.000000

-3.630104,3.081326,4.860153,15.809410,0.005785,0.068227,0.557705,7.328000,0.000000

-4.049232,7.207945,10.301638,15.812351,-0.422953,0.165220,0.981646,7.312000,0.000000

-4.465966,-2.499069,13.544495,15.797646,0.101711,0.135376,1.398927,7.336000,0.000000

-3.450477,4.695570,12.176938,15.800587,-0.033918,0.132711,1.356559,7.328000,0.000000

-5.344938,1.950877,7.604846,15.818233,-0.075753,-0.088719,1.328048,7.324000,0.000000

-1.917665,1.735325,9.221484,15.832939,0.090253,-0.368771,1.360023,7.332000,0.000000

-2.957103,1.749696,9.978311,15.806469,0.005518,-0.125225,1.052259,7.328000,0.000000

-1.194369,4.374637,9.080178,15.812351,0.094783,-0.034627,1.018951,7.316000,0.000000

-3.852841,-2.652350,10.744717,15.818233,-0.033918,-0.039424,0.720247,7.320000,0.000000

-1.369205,0.537816,8.447892,15.809410,-0.282794,-0.122293,0.418611,7.324000,0.000000

1.497633,2.008358,10.541140,15.818233,-0.007538,-0.067669,0.353061,7.320000,0.000000

3.629200,1.922137,7.935358,15.827057,-0.049373,-0.077794,0.404222,7.312000,0.000000

0.585131,-2.968493,12.198493,15.824116,-0.091474,0.007474,0.566231,7.272000,0.000000

2.141893,0.255203,12.584091,15.827057,0.288768,-0.033561,0.487359,7.288000,0.000000

1.234181,0.784503,10.359118,15.803528,-0.106662,0.108996,0.190786,7.252000,0.000000

4.589603,-3.390016,8.237131,15.815292,-0.092273,0.095939,-0.045566,7.220000,0.000000

1.294056,3.201077,8.275451,15.812351,0.271181,0.411164,-0.173735,7.236000,0.000000

1.037789,4.532709,5.602609,15.824116,-0.067492,0.155893,-0.489226,7.180000,0.000000

0.271383,2.209539,8.859837,15.832939,-0.052304,0.230769,-0.709857,7.192000,0.000000

3.135827,6.443934,9.678933,15.835880,0.181384,0.159357,-0.690406,7.228000,0.000000

1.557508,6.070311,7.839557,15.815292,0.173123,0.410631,-0.330415,7.248000,0.000000

-2.858907,1.986803,7.992838,15.827057,0.006318,0.267541,-0.255539,7.268000,0.000000

-0.528554,9.147911,7.123446,15.835880,0.240538,0.156693,-0.715453,7.296000,0.000000

-2.885253,0.540211,10.203442,15.838821,-0.595621,0.148166,-1.284883,7.276000,0.000000

-2.329608,0.820428,10.608200,15.829998,0.297295,0.294187,-1.201747,7.296000,0.000000

-6.123319,5.212894,12.361355,15.841763,-0.080549,0.002411,-1.274491,7.292000,0.000000

-3.268456,2.437066,8.962822,15.835880,-0.010736,-0.054079,-1.361625,7.284000,0.000000

-3.560648,3.287298,6.704318,15.829998,0.140348,-0.394085,-1.024283,7.292000,0.000000

-2.219437,8.743153,6.951005,15.824116,0.130489,-0.561957,-0.720782,7.300000,0.000000

1.471288,2.314920,9.666958,15.812351,-0.153826,-0.614450,-0.499885,7.308000,0.000000

1.420992,3.222633,10.102851,15.818233,0.029500,-0.402079,-0.107119,7.312000,0.000000

2.170634,6.166112,7.985653,15.829998,0.381497,-0.122560,0.273922,7.348000,0.000000

1.174305,6.367293,8.150910,15.832939,0.054014,-0.271779,0.373579,7.356000,0.000000

0.858163,2.437066,6.483976,15.818233,-0.099734,-0.121228,0.558238,7.348000,0.000000

1.298846,4.183036,9.425060,15.803528,-0.032852,-0.158532,0.612329,7.356000,0.000000

-1.642238,7.895316,11.190190,15.827057,0.032165,0.025060,0.436198,7.364000,0.000000

-1.268615,2.101763,7.777287,15.827057,0.043089,-0.343191,0.176130,7.372000,0.000000

-3.072064,7.612703,12.696657,15.832939,-0.234031,0.004809,0.100189,7.376000,0.000000

3.178937,2.463411,7.161767,15.850588,0.244002,0.112993,-0.045566,7.384000,0.000000

-0.734525,5.416471,9.001143,15.832939,-0.021927,-0.083923,-0.339741,7.380000,0.000000

1.021024,2.597533,11.606923,15.832939,-0.165551,-0.179316,-0.423410,7.384000,0.000000

1.801800,1.792806,6.084008,15.824116,0.408410,-0.071932,-0.371983,7.400000,0.000000

-1.326095,1.203631,12.586487,15.832939,-0.596154,-0.411405,-0.296041,7.396000,0.000000

-2.494864,2.616693,8.174860,15.824116,0.265053,0.006408,0.037570,7.384000,0.000000

-0.083080,-2.192507,14.658178,15.827057,-0.467453,-0.334664,0.078339,7.384000,0.000000

1.689234,-2.008090,7.810817,15.821175,0.457172,0.013069,0.399426,7.380000,0.000000

-0.248336,4.199801,8.103010,15.827057,-0.423220,0.042647,0.459114,7.360000,0.000000

5.023102,-3.646283,9.226274,15.841763,0.183515,0.024794,0.719181,7.360000,0.000000

-0.753685,0.219278,10.629756,15.809410,-0.078151,0.199593,0.944342,7.336000,0.000000

3.133431,-0.635744,9.877720,15.818233,-0.076019,0.122319,0.957665,7.320000,0.000000

0.563575,3.694452,8.878996,15.829998,0.359913,0.251287,0.919028,7.336000,0.000000

-2.703231,1.229976,9.542417,15.818233,-0.149563,0.096739,0.720780,7.324000,0.000000

-0.004044,5.440421,6.165439,15.818233,0.040691,0.123385,0.395163,7.316000,0.000000

0.946778,-2.321838,14.131274,15.841763,-0.168748,0.151896,0.419144,7.304000,0.000000

-0.085475,6.415194,8.143725,15.824116,0.279975,0.197195,0.321619,7.300000,0.000000

1.387462,-1.138698,10.711186,15.841763,-0.374724,0.244092,0.086599,7.320000,0.000000

1.804196,5.150623,6.165439,15.853529,0.323142,0.278200,0.108182,7.332000,0.000000

0.764757,8.165953,6.124723,15.821175,-0.188466,0.397575,0.117509,7.312000,0.000000

1.449733,2.631063,9.214299,15.841763,-0.307309,0.278999,-0.026648,7.344000,2406.557993

1.409017,8.470120,7.204877,15.853529,0.276244,0.540132,-0.026914,7.352000,2406.557993

1.476078,3.938743,6.620492,15.844706,-0.050439,0.411697,-0.148954,7.360000,2406.557993

-2.030231,7.234291,10.852492,15.853529,-0.254283,0.599553,-0.141493,7.372000,2406.557993

-2.008676,5.952955,9.511281,15.827057,0.010848,0.478046,-0.477769,7.384000,2406.557993

-1.647028,2.449041,5.724755,15.829998,-0.117054,0.368264,-0.410354,7.396000,2406.557993

-1.790729,8.848534,7.283913,15.841763,-0.004607,0.484975,-0.171337,7.396000,2406.557993

-3.048114,3.344779,9.848979,15.824116,-0.292920,0.316837,0.037303,7.400000,2406.557993

-1.184789,4.216566,6.419311,15.832939,0.112636,0.347746,0.096725,7.404000,2406.557993

-4.506681,1.546119,7.995234,15.838821,-0.103198,0.208919,0.182525,7.404000,2406.557993

-1.630263,2.410721,9.374765,15.841763,0.185380,0.087945,-0.003199,7.416000,2406.557993

-4.636012,1.055140,1.727468,15.859411,0.180851,0.302981,-0.156681,7.408000,2406.557993

-4.190538,-3.490607,15.577866,15.859411,-0.671829,0.213183,-0.381842,7.412000,2406.557993

1.679655,4.527918,8.452682,15.862352,0.494477,0.534537,-0.517471,7.412000,2406.557993

-1.673373,-4.479750,11.077624,15.859411,-0.197260,-0.099644,-0.641909,7.400000,2406.557993

-1.364415,7.957586,7.923383,15.865294,0.287169,0.184671,-0.942213,7.388000,2406.557993

-2.413434,-6.098783,11.628479,15.871176,0.070802,-0.327736,-0.987245,7.368000,2406.557993

0.915643,-2.312258,5.997787,15.877058,0.058278,-0.179849,-1.126072,7.364000,2406.557993

-0.262706,7.969562,13.003220,15.882940,0.397485,0.030390,-1.288880,7.368000,2406.557993

-0.138165,-6.046093,7.216852,15.877058,-0.215646,-0.486814,-1.371484,7.348000,2406.557993

-1.852999,2.307735,6.982141,15.900587,0.048152,0.029324,-1.484197,7.344000,2406.557993

0.278568,0.638407,10.342353,15.882940,-0.121051,-0.137748,-1.415450,7.320000,2406.557993

-1.900900,3.763907,7.729386,15.894705,0.076397,-0.095381,-1.271027,7.332000,2406.557993

1.253341,-0.501623,11.190190,15.903528,0.127025,-0.242468,-1.382675,7.336000,2406.557993

-3.268456,10.644798,11.891931,15.903528,0.208563,-0.207561,-1.259037,7.324000,2406.557993

1.171910,0.432435,7.001300,15.894705,-0.065627,-0.565154,-1.065052,7.336000,2406.557993

-5.055140,4.489598,5.226591,15.909410,0.356449,-0.218753,-0.851083,7.336000,2406.557993

-2.490075,1.218001,7.703041,15.918234,0.069469,-0.407142,-0.864938,7.348000,2406.557993

-2.597850,4.796161,12.519426,15.912352,0.155537,-0.419932,-0.935551,7.368000,2406.557993

-5.265902,8.209064,7.025251,15.900587,0.569086,-0.361310,-0.817775,7.372000,2406.557993

0.829423,1.397628,11.147079,15.903528,-0.260678,-0.745283,-0.642975,7.388000,2406.557993

-3.555858,7.083404,4.460185,15.891764,0.896036,-0.198768,-0.435135,7.396000,2406.557993

-4.367770,3.890843,6.230104,15.921175,0.083059,-0.974174,-0.305367,7.408000,2406.557993

-2.336793,7.373202,8.526928,15.909410,0.055613,-0.695721,-0.185726,7.404000,2406.557993

0.345629,-0.554313,11.300361,15.912352,0.082792,-0.729295,0.013055,7.408000,2406.557993

-2.126032,9.674815,9.154424,15.909410,0.495809,-0.406609,0.363453,7.416000,2406.557993

5.502106,1.723350,6.570197,15.894705,0.026302,-0.888906,0.610198,7.424000,2406.557993

-4.240834,7.617494,5.375082,15.897646,0.443583,-0.252327,0.950737,7.428000,13.753872

3.346588,3.375914,14.871335,15.912352,-0.331557,-0.617114,1.087432,7.420000,13.753872

2.345470,4.240516,7.432404,15.903528,0.609589,-0.175586,1.264363,7.432000,13.753872

2.369420,-0.750705,17.948935,15.909410,-0.875140,-0.347987,1.228924,7.428000,13.753872

-1.383576,-1.323114,5.152345,15.915293,1.053249,0.160956,0.889450,7.424000,13.753872

1.959872,5.373360,6.862390,15.912352,-0.503958,-0.233941,0.694933,7.424000,13.753872

4.587208,-0.029804,7.700646,15.906469,-0.126647,0.116990,0.942743,7.412000,13.753872

1.004259,-1.126723,12.270344,15.906469,0.342860,0.414362,1.048262,7.400000,13.753872

-1.747618,3.512430,10.040581,15.894705,0.175788,0.147367,0.845751,7.400000,13.753872

-1.211134,-2.685881,8.107800,15.894705,-0.020329,0.111128,0.496418,7.400000,13.753872

-2.595455,0.006121,7.446774,15.912352,0.242137,0.163621,0.613129,7.392000,13.753872

-2.264943,0.207303,10.711186,15.897646,-0.202322,0.206521,0.646170,7.368000,13.753872

-3.237321,4.104000,9.487331,15.906469,0.200835,0.278999,0.431401,7.372000,13.753872

1.004259,-0.820160,9.372371,15.909410,-0.126914,-0.065271,0.308029,7.372000,13.753872

1.104850,4.860826,11.982942,15.929998,0.330336,0.211318,0.312826,7.380000,13.753872

1.614989,-0.618979,8.507768,15.938822,-0.334754,0.002944,0.265928,7.360000,13.753872

-0.974027,7.885736,8.886181,15.938822,0.591469,0.397841,0.157478,7.372000,13.753872

0.230668,0.281549,7.092311,15.941763,-0.299048,-0.040756,0.220896,7.368000,13.753872

1.444943,7.674974,10.155541,15.947645,0.149674,0.328295,0.404489,7.380000,13.753872

2.168238,5.088353,8.409573,15.959410,0.332201,0.253952,0.508409,7.404000,13.753872

2.386185,4.405772,4.412284,15.971176,-0.057100,0.276334,0.628051,7.400000,13.753872

-2.418224,4.724310,5.219406,15.982941,0.433990,0.260347,0.610731,7.408000,13.753872

-3.936666,0.959339,7.583290,15.991764,-0.321964,0.283262,0.528660,7.412000,13.753872

-1.438661,8.347975,8.864626,16.003529,0.359913,0.578769,0.563567,7.408000,13.753872

-6.305341,5.478741,11.077624,16.003529,-0.516215,0.269673,0.585950,7.412000,13.753872

-0.504603,-3.794775,7.734177,16.000587,0.096648,-0.090584,0.335741,7.416000,13.753872

-0.993187,8.357554,6.198969,16.009411,0.035895,0.630463,0.494553,7.424000,13.753872

-4.480336,3.287298,10.337564,15.997646,-0.081082,0.115391,0.347999,7.420000,13.753872

-2.351163,-1.538666,12.205678,15.994705,-0.571106,-0.095381,0.209705,7.424000,13.753872

2.843634,4.590189,11.836845,16.006470,0.688462,0.030656,-0.011459,7.440000,13.753872

-8.439303,3.613021,5.080495,16.003529,0.092385,0.210785,0.049561,7.432000,13.753872

-3.153495,-1.471606,17.553757,16.015293,-0.533535,-0.282437,-0.022917,7.420000,13.753872

1.564694,-2.065571,7.573710,16.018234,0.267451,-0.075929,0.053291,7.412000,13.753872

-2.811007,4.891962,8.265871,16.003529,0.019108,0.009339,0.106584,7.408000,13.753872

-3.757040,-7.720212,10.308823,16.012352,-0.087744,-0.328269,0.007193,7.384000,14.624679

3.432809,4.868011,13.185242,16.012352,-0.466387,-0.326937,-0.131634,7.376000,14.624679

9.520948,0.530631,11.183005,16.000587,0.379099,-0.530780,-0.040237,7.376000,14.624679

1.749110,3.912398,5.394242,16.000587,-0.044310,0.064763,0.184924,7.360000,14.624679

0.343234,3.395074,8.919712,16.003529,0.044422,0.093541,0.256868,7.348000,14.624679

2.273619,0.252808,9.939990,16.009411,-0.210583,-0.074064,0.308296,7.360000,14.624679

0.771942,3.275323,10.814172,16.015293,-0.122917,0.172680,0.291775,7.364000,14.624679

1.246156,10.513072,6.881549,16.024117,0.612786,0.302448,0.291242,7.380000,14.624679

-2.315238,-3.603173,10.021420,16.009411,-0.423486,-0.190774,0.075408,7.372000,14.624679

-0.609984,9.602964,10.081296,16.018234,0.236008,0.374393,0.073276,7.380000,14.624679

0.498910,-0.379477,8.452682,16.003529,0.087056,-0.066603,-0.131101,7.384000,14.624679

-2.782267,0.568951,7.952123,16.012352,0.075065,0.065030,-0.347202,7.388000,14.624679

-2.784662,10.457987,9.408296,16.027058,0.093717,0.534803,-0.434069,7.396000,14.624679

3.976478,6.925333,7.319838,16.021175,-0.203655,-0.239004,-0.824436,7.400000,14.624679

0.618661,1.297037,9.743598,15.997646,-0.026191,-0.039424,-0.759419,7.412000,14.624679

-1.924850,10.194534,11.199770,16.003529,0.054014,0.292056,-0.871067,7.416000,14.624679

0.941988,-1.131513,9.628637,16.003529,-0.203122,-0.382361,-1.220666,7.432000,14.624679

-0.504603,11.942899,3.945256,16.018234,0.657552,-0.006382,-1.040004,7.428000,14.624679

2.410136,0.889884,7.281518,16.009411,-0.528739,-0.318410,-0.941147,7.432000,14.624679

-0.030389,6.206827,7.832372,15.994705,-0.042445,0.029857,-0.585419,7.436000,14.624679

3.023261,1.503009,11.451247,16.000587,0.111304,-0.216621,-0.718651,7.448000,14.624679

2.484381,8.513231,6.464816,16.000587,0.012180,-0.337595,-0.422877,7.440000,14.624679

3.804037,0.822823,8.253896,15.982941,-0.230035,-0.400214,-0.048764,7.440000,14.624679

2.213744,-1.715898,12.090717,16.000587,-0.165551,-0.164661,0.156146,7.444000,14.624679

2.383790,1.148546,9.362790,15.994705,-0.269471,-0.177718,0.138026,7.436000,14.624679

2.558627,1.064720,11.757810,15.985882,0.035895,0.243826,0.164672,7.436000,14.624679

3.542980,-1.553036,9.034673,16.000587,-0.021927,0.191333,0.215300,7.440000,14.624679

3.684286,0.571346,9.848979,16.009411,-0.097070,0.388249,0.099656,7.436000,14.624679

0.283358,-3.083454,11.218930,15.971176,-0.269205,0.161756,0.078339,7.408000,14.624679

-1.378785,0.604876,11.865585,15.985882,0.457972,0.479912,0.105784,7.408000,14.624679

-0.461493,0.676727,8.189230,16.003529,-0.079483,-0.015708,0.086865,7.384000,14.624679

-1.457821,-1.960190,7.631191,15.988823,-0.350476,0.109529,0.091662,7.380000,14.624679

-4.916229,5.622442,9.611873,15.988823,-0.100534,0.062631,-0.273392,7.360000,14.624679

-3.486403,2.156849,10.078901,16.000587,0.364710,-0.079393,-0.135631,7.384000,14.624679

-2.432594,5.078773,5.739125,16.000587,-0.156224,-0.192373,-0.070880,7.372000,14.624679

-1.790729,1.220396,12.370934,16.006470,-0.177009,-0.180915,0.364253,7.384000,14.624679

2.484381,2.499337,4.685317,16.006470,0.295429,-0.030364,0.625120,7.408000,14.087974

-0.083080,9.356277,12.521821,15.994705,0.102777,0.268607,1.257702,7.412000,14.087974

3.325033,1.476663,8.457473,15.982941,-0.177009,-0.100976,1.625420,7.388000,14.087974

-0.866251,8.156373,9.250224,15.985882,0.386560,0.329627,1.420510,7.408000,14.087974

-0.193251,-1.165043,9.331655,15.994705,-0.182338,-0.013843,1.154581,7.420000,14.087974

1.892811,11.039976,8.158095,16.009411,0.379099,0.759697,0.988308,7.436000,14.087974

-4.504286,1.079090,5.832531,16.000587,-0.033918,0.627265,0.742896,7.436000,14.087974

-1.419501,7.689344,13.024776,15.997646,-0.090941,0.527342,0.496418,7.448000,14.087974

0.350419,12.680565,6.948610,16.012352,0.798511,1.090111,0.176130,7.456000,14.087974

-8.925492,0.640802,11.274015,16.003529,-0.974264,0.434080,0.105784,7.444000,14.087974

4.254301,4.501573,4.254213,16.009411,0.366841,0.144702,-0.673086,7.452000,14.087974

-6.077814,1.510194,9.801079,16.012352,-0.187933,0.281664,-0.705594,7.456000,14.087974

-2.286498,0.168983,18.600380,16.018234,-0.483440,0.316570,-0.612865,7.448000,14.087974

-2.947523,-2.642770,7.671906,16.021175,-0.033385,0.158025,-0.709058,7.440000,14.087974

-0.260311,-2.063175,13.065491,16.027058,0.066005,0.054105,-1.043468,7.440000,14.087974

-0.027994,1.807176,10.792617,16.021175,0.178186,-0.200367,-0.990709,7.432000,14.087974

-0.418383,-1.361435,4.251818,16.024117,0.033497,-0.279506,-0.743965,7.412000,14.087974

-3.855236,-8.407582,12.610436,16.029999,-0.181272,-0.019705,-0.832963,7.384000,14.087974

2.091598,6.944493,7.283913,16.032940,0.388425,-0.309350,-0.882792,7.392000,14.087974

2.613712,-2.340998,13.271462,16.035881,-0.288390,-0.343724,-0.683478,7.360000,14.087974

1.461708,1.493428,7.298283,16.044704,0.404946,-0.186244,-0.475903,7.352000,14.087974

-0.274681,3.926768,13.316967,16.041763,-0.404834,-0.103641,-0.428207,7.340000,14.087974

0.537230,-5.076110,10.586645,16.038822,0.350854,-0.232342,-0.504948,7.348000,14.087974

-0.506998,9.159886,9.089758,16.044704,0.615717,0.019465,-0.395965,7.352000,14.087974

-1.565597,3.002291,7.099496,16.041763,-0.279064,-0.321074,-0.315226,7.344000,14.087974

0.956359,2.544842,7.624006,16.041763,0.119564,-0.096447,-0.404758,7.340000,14.087974

-2.355953,3.445369,10.301638,16.029999,0.181650,-0.075929,-0.926225,7.348000,14.087974

-2.023046,2.283785,8.064690,16.050587,-0.022993,-0.321074,-1.030412,7.364000,14.087974

-5.938902,6.410404,10.165122,16.059410,0.537377,-0.065004,-1.032277,7.392000,14.087974

-4.784503,2.051468,7.544970,16.041763,-0.141569,-0.492410,-1.185226,7.400000,14.087974

-2.413434,7.150465,10.335168,16.047646,0.227748,-0.293096,-1.120476,7.400000,14.087974

-2.157167,6.743311,6.912685,16.038822,0.542440,-0.469228,-0.881726,7.408000,14.087974

-1.201554,1.835916,9.508886,16.047646,-0.157823,-0.761803,-0.875331,7.424000,14.087974

-2.348768,3.665711,6.893525,16.053528,0.712177,-0.239537,-0.707992,7.440000,14.087974

-4.523446,12.175216,7.834767,16.021175,0.551500,-0.768998,-0.678681,7.444000,14.087974

4.493803,-0.774655,10.052556,16.035881,-0.540463,-1.288600,-0.206776,7.444000,14.087974

-0.073500,9.401783,6.007368,16.053528,0.808636,-0.283770,0.588881,7.444000,14.087974

1.339562,4.115975,13.269067,16.029999,0.085723,-0.614183,0.939279,7.440000,14.158663

1.787430,-1.430890,9.444221,16.029999,0.132088,-0.630704,1.116743,7.452000,14.158663

-0.653095,12.512914,7.142607,16.035881,0.737224,0.054904,1.449022,7.452000,14.158663

6.716381,-4.989889,11.266830,16.050587,-1.126681,-0.859062,1.140192,7.440000,14.158663

0.937198,2.805899,5.724755,16.047646,1.210995,0.369330,1.117009,7.444000,14.158663

4.271066,-3.339721,9.451406,16.056469,0.020440,-0.089785,0.838023,7.436000,14.158663

-0.878226,-3.143329,13.716936,16.038822,-0.163419,0.084215,0.722645,7.428000,14.158663

2.493961,-0.089679,11.202166,16.027058,-0.000610,0.302981,0.817239,7.432000,14.158663

5.267394,-2.961308,6.574987,16.035881,0.244802,0.398108,1.013888,7.420000,14.158663

0.000746,-8.189635,12.718212,16.041763,-0.258280,-0.004517,0.842820,7.384000,14.158663

-3.883976,7.610309,7.070756,16.024117,0.374835,0.315238,0.858008,7.372000,14.158663

-3.594178,-3.619938,11.844030,16.053528,-0.369394,-0.023436,0.697331,7.376000,14.158663

-0.408803,4.475228,6.325905,16.038822,0.419867,0.227305,0.644571,7.360000,14.158663

-2.300868,-1.222524,10.737532,16.050587,-0.113590,0.211584,0.742630,7.352000,14.158663

-4.283944,9.579015,8.855046,16.018234,0.290100,0.558518,0.692002,7.364000,14.158663

-2.353559,1.124595,9.453801,16.032940,-0.225505,-0.235274,0.500415,7.352000,14.158663

0.963544,4.240516,7.801237,16.047646,0.333800,0.013336,0.525996,7.376000,14.158663

0.355209,6.376873,8.809541,16.032940,-0.174877,0.157759,0.591812,7.356000,14.158663

1.993402,3.277718,9.877720,16.038822,-0.013933,0.038916,0.635245,7.388000,14.158663

3.133431,3.785462,6.785749,16.035881,0.270648,0.141504,0.502547,7.384000,14.158663

0.786312,6.166112,6.864784,16.041763,-0.224972,0.147100,0.506810,7.408000,14.158663

-1.127308,5.179364,7.238408,16.041763,-0.016065,0.352276,0.704792,7.404000,14.158663

-2.897228,2.453831,12.143408,16.041763,-0.024326,0.443939,0.827898,7.424000,14.158663

-1.151259,4.762630,10.593830,16.056469,0.015910,0.339220,0.628584,7.428000,14.158663

-0.114215,8.357554,9.183164,16.041763,0.138750,0.641654,0.557705,7.436000,14.158663

0.405504,6.973233,6.778563,16.050587,0.234942,0.395976,0.508143,7.436000,14.158663

-0.926127,-0.341156,9.987890,16.035881,-0.323829,0.190533,0.342403,7.436000,14.158663

-3.067274,7.528878,13.822316,16.035881,-0.002209,0.923838,0.133763,7.436000,14.158663

-2.087711,2.022728,5.468488,16.041763,0.162731,0.281930,-0.406623,7.440000,14.158663

-1.618287,0.925809,11.968572,16.053528,-0.384316,0.192932,-0.389037,7.444000,14.158663

-4.604877,2.753209,10.917158,16.050587,-0.187401,0.378922,-0.364522,7.448000,14.158663

-1.599127,4.468043,7.147397,16.047646,0.191776,0.165220,-0.548648,7.444000,14.158663

-4.592902,-3.071479,13.676220,16.056469,-0.421888,-0.264584,-0.647239,7.432000,14.158663

-4.262389,-2.487094,8.531718,16.077057,0.126226,0.046910,-0.376246,7.424000,14.158663

-4.209699,-2.578105,5.640929,16.068233,-0.183670,-0.267782,-0.108718,7.404000,14.158663

-1.656608,2.276600,9.755573,16.085880,0.067871,0.097005,-0.011726,7.412000,14.158663

-4.856354,-4.628241,11.741045,16.071175,-0.246555,-0.307485,-0.050363,7.388000,14.158663

6.302042,4.491993,9.839399,16.079998,0.289567,-0.273911,0.107117,7.388000,13.947235

4.649479,0.121082,7.154582,16.074116,-0.210849,-0.324272,0.304565,7.364000,13.947235

4.723724,2.341265,12.586487,16.091763,0.126759,-0.014909,0.558770,7.356000,13.947235

0.764757,3.117252,9.072993,16.088821,0.039093,0.131379,0.605668,7.356000,13.947235

-0.107030,4.046519,8.076665,16.088821,0.211760,0.121253,0.364786,7.360000,13.947235

-2.118846,1.687425,10.486054,16.068233,-0.128779,0.095673,0.096192,7.360000,13.947235

0.328863,2.789134,9.837004,16.074116,0.160333,0.100469,-0.047432,7.368000,13.947235

-1.436266,4.434513,8.804750,16.085880,0.021240,0.244359,-0.245680,7.372000,13.947235

-2.478099,3.217843,6.639653,16.082939,-0.005407,0.186270,-0.624323,7.360000,13.947235

-1.893715,6.951678,8.091035,16.082939,-0.036583,0.124184,-0.810047,7.376000,13.947235

-1.275800,1.246742,8.546088,16.085880,-0.166084,-0.108704,-0.839625,7.380000,13.947235

-0.808771,9.440104,8.577224,16.068233,0.266652,0.116990,-0.802320,7.392000,13.947235

-0.792006,4.309972,9.410690,16.068233,-0.317168,-0.192640,-0.759153,7.388000,13.947235

1.895206,7.957586,11.573393,16.071175,0.137950,-0.130287,-0.662427,7.404000,13.947235

-0.274681,2.544842,9.255014,16.053528,-0.082414,-0.269114,-0.673086,7.416000,13.947235

1.016234,11.339354,10.246552,16.077057,-0.073088,-0.016508,-0.473505,7.428000,13.947235

-1.297355,-1.900314,4.824228,16.068233,0.069469,-0.257124,-0.543585,7.440000,13.947235

-3.984567,8.288099,9.187954,16.077057,-0.013667,-0.141745,-0.625122,7.436000,13.947235

-0.138165,-0.029804,7.470724,16.077057,0.031632,-0.237672,-0.472706,7.452000,13.947235

-3.697164,8.292890,14.188755,16.074116,-0.245756,-0.163329,-0.479367,7.444000,13.947235

2.517911,1.984407,7.659931,16.071175,0.094783,-0.500937,-0.556641,7.452000,13.947235

3.377723,-0.599819,11.063254,16.050587,0.046287,-0.409806,-0.233422,7.452000,13.947235

-0.990792,9.092826,11.664404,16.079998,0.403347,-0.071666,0.108715,7.456000,13.947235

6.005060,-1.457236,9.022697,16.079998,0.160067,-0.336263,-0.064219,7.460000,13.947235

-2.830167,2.425091,9.786709,16.082939,0.340995,-0.020771,-0.144690,7.456000,13.947235

-2.226622,-0.647719,6.371410,16.085880,0.556829,-0.342125,-0.139628,7.456000,13.947235

-0.411198,-0.065729,7.231222,16.059410,-0.854623,-0.366906,-0.060755,7.448000,13.947235

-1.077013,1.632339,10.064531,16.079998,0.493944,0.284861,-0.099658,7.444000,13.947235

-0.880621,-4.000746,10.593830,16.065292,-0.378188,-0.615515,-0.135098,7.424000,13.947235

-1.826654,4.755445,7.822792,16.074116,0.490480,-0.190774,0.415680,7.416000,13.947235

5.116508,-2.707436,5.351132,16.065292,-0.208185,-0.571816,0.729040,7.416000,13.947235

-1.189579,5.778119,10.905183,16.071175,0.111037,0.240895,1.246244,7.400000,13.947235

2.024537,-4.034276,11.345866,16.068233,-0.093606,-0.528649,1.476467,7.388000,13.947235

1.940712,2.631063,13.065491,16.074116,0.062008,-0.025301,1.752256,7.396000,13.947235

3.789667,2.920860,8.852651,16.071175,0.203233,-0.071932,1.851380,7.380000,13.947235

2.105968,-0.015434,5.947492,16.074116,0.105442,0.124984,2.070945,7.376000,13.947235

-3.469637,3.663316,9.025092,16.053528,0.107307,0.410365,1.782899,7.376000,13.947235

1.028209,3.735167,9.669353,16.068233,0.038826,0.309109,1.538020,7.380000,13.947235

2.213744,8.352765,8.867022,16.065292,0.247200,0.433014,1.266495,7.408000,13.947235

2.898720,7.253451,7.794052,16.074116,0.062008,0.568910,1.073310,7.420000,13.947235

0.762362,4.494388,8.931686,16.068233,0.152339,0.549458,0.949138,7.420000,13.947235

2.163449,3.921978,3.626718,16.056469,0.293298,0.529740,0.743429,7.424000,13.947235

1.866466,7.552828,8.122169,16.056469,-0.262809,0.846564,0.642440,7.432000,13.947235

-0.844696,4.990157,7.815607,16.065292,0.046554,0.795403,0.533723,7.444000,13.947235

-3.939061,2.633458,12.382910,16.053528,-0.126914,1.138873,0.567564,7.456000,13.947235

-4.655172,2.470596,8.388017,16.065292,0.188844,0.807394,0.430069,7.460000,13.947235

-3.917506,6.551710,10.399834,16.065292,-0.166616,0.785278,-0.098060,7.452000,13.947235

-4.070787,2.755604,10.900393,16.059410,0.009782,0.372527,-0.374381,7.460000,13.947235

-1.225504,4.669225,8.332932,16.050587,-0.008871,0.341085,-0.203845,7.468000,13.947235

-4.590507,-0.290861,5.621769,16.068233,-0.079483,0.235566,-0.234222,7.456000,13.947235

3.248392,-5.727555,6.967770,16.050587,0.442517,0.085281,-0.097527,7.456000,13.947235

-5.435948,-2.008090,12.421230,16.071175,-0.431747,0.485774,-0.070347,7.452000,13.947235

2.458036,2.441856,9.300520,16.065292,0.026302,0.231302,-0.463380,7.436000,13.947235

-0.253126,5.315880,9.722043,16.082939,0.070002,0.588628,-1.046666,7.440000,13.947235

1.672469,-7.851937,12.610436,16.074116,-0.503691,0.033054,-1.379211,7.424000,13.947235

4.496198,6.860667,9.410690,16.074116,0.177387,0.641654,-1.508712,7.424000,13.947235

0.424664,0.135452,8.383227,16.059410,0.057745,0.277667,-1.785566,7.412000,13.947235

2.412530,-2.075150,10.569880,16.050587,-0.142901,0.283795,-2.048299,7.404000,13.947235

0.882113,7.071429,3.909330,16.074116,0.346324,0.538800,-2.308366,7.404000,13.947235

-2.106871,-1.414125,11.903906,16.074116,-0.697143,0.443140,-2.443729,7.408000,13.947235

-4.628827,3.807017,12.952925,16.056469,0.279175,0.391446,-2.856479,7.416000,13.947235

-4.556976,1.649105,11.056069,16.050587,0.274112,0.251553,-3.348902,7.436000,13.947235

-0.528554,0.042047,9.959150,16.068233,0.222685,-0.480153,-2.793861,7.432000,13.947235

-7.363939,4.511153,10.914762,16.062351,0.708713,-0.027166,-2.132234,7.444000,13.947235

-6.350846,-1.675182,8.196416,16.071175,0.461702,-0.883843,-1.874831,7.448000,13.947235

-4.248019,4.137530,7.456354,16.074116,0.819828,-0.479353,-1.198017,7.472000,13.947235

-2.834957,6.489439,6.974955,16.050587,0.398284,-0.786051,-0.553177,7.464000,13.947235

-2.770292,1.603599,6.546247,16.062351,0.923482,-0.161730,-0.179597,7.476000,13.947235

-2.787057,0.513866,9.774734,16.047646,-0.069358,-0.686128,0.095659,7.488000,13.947235

-0.602799,14.203797,5.875641,16.062351,0.834483,-0.282437,0.157212,7.480000,13.947235

6.563099,2.619088,13.901352,16.062351,-0.020595,-0.786051,0.514271,7.488000,13.947235

-2.015861,2.295760,13.031960,16.065292,0.732428,-0.508131,0.576091,7.492000,7.242914

0.546810,5.361385,6.105563,16.056469,0.385494,-0.525984,0.649101,7.484000,7.242914

1.440153,6.793607,7.540180,16.079998,-0.258013,0.003743,0.709855,7.472000,7.242914

3.978873,-4.733622,21.440874,16.071175,-0.375790,-0.132419,0.408219,7.468000,7.242914

1.703605,1.141361,13.230747,16.059410,0.820094,0.205189,0.216899,7.480000,7.242914

-0.545319,-3.260685,5.181086,16.068233,0.077463,-0.052747,0.297637,7.472000,7.242914

-5.265902,2.973551,8.577224,16.062351,-0.235897,0.306711,0.261931,7.452000,7.242914

5.514081,-7.176542,10.090877,16.053528,-0.279597,0.067961,0.280850,7.452000,7.242914

-2.753527,4.080050,7.554550,16.068233,0.713509,0.809792,0.255270,7.448000,7.242914

-0.272286,0.197723,12.581697,16.050587,-0.955878,-0.282437,0.115910,7.424000,7.242914

0.774337,-2.817607,7.568920,16.059410,0.504336,0.596089,-0.111383,7.432000,7.242914

-3.673214,3.038216,9.619058,16.056469,0.142214,0.159357,-0.525998,7.408000,7.242914

-1.532067,6.051151,10.014235,16.053528,-0.017664,0.160423,-0.705327,7.392000,7.242914

-1.603917,-2.288307,7.942543,16.059410,-0.142102,0.027725,-0.908905,7.404000,7.242914

-3.021769,1.615574,8.009604,16.065292,0.241338,0.262745,-1.005631,7.408000,7.242914

-6.645433,5.536222,9.053833,16.091763,-0.054169,0.244359,-0.889453,7.416000,7.242914

-0.210016,0.422855,10.634545,16.079998,-0.044044,-0.211825,-0.947542,7.420000,7.242914

-2.121242,1.158126,11.384187,16.085880,0.195772,0.085281,-1.162577,7.436000,7.242914

-3.515143,5.450001,11.010564,16.065292,0.099580,0.121520,-1.145524,7.444000,7.242914

-2.207462,-0.829740,3.957231,16.079998,-0.157823,0.081817,-1.227327,7.440000,7.242914

-1.232689,-2.901432,7.532995,16.062351,-0.010469,0.000812,-1.293144,7.444000,7.242914

-1.347650,11.305823,9.219090,16.071175,1.104942,0.484442,-1.096761,7.456000,7.242914

0.065411,2.722074,8.625124,16.088821,-0.612142,-0.747681,-0.761818,7.456000,7.242914

-5.778436,3.399864,11.106364,16.094706,0.552033,0.051973,-0.734905,7.460000,7.242914

-3.826495,-0.317206,6.572592,16.079998,0.358048,-0.437519,-1.132200,7.464000,7.242914

-4.765343,1.143756,14.658178,16.082939,-0.117054,-0.321607,-1.005364,7.460000,7.242914

-3.009794,-5.109640,9.396320,16.079998,0.153938,-0.148140,-0.943545,7.468000,7.242914

-7.692057,7.861786,6.948610,16.082939,0.696456,0.101269,-0.898513,7.472000,7.242914

0.383949,-2.975678,10.282477,16.077057,-0.109860,-1.317111,-1.408522,7.460000,7.242914

-3.922296,1.467083,11.769785,16.074116,0.814765,-0.257124,-1.219600,7.464000,7.242914

-7.411839,-4.673747,10.258528,16.074116,0.226149,-0.973108,-0.945144,7.456000,7.242914

-2.686466,-1.675182,7.473119,16.079998,0.536578,-0.738621,-0.713321,7.448000,7.242914

-5.498219,2.578372,11.326706,16.079998,0.247733,-1.257157,-0.236886,7.428000,7.242914

-0.004044,-2.724201,6.850414,16.071175,0.805705,-0.970177,0.144688,7.436000,7.242914

-4.619247,3.050191,6.790539,16.074116,0.670875,-0.974174,0.376777,7.428000,2379.749737

-0.815956,1.347332,3.885380,16.082939,0.214158,-1.117531,0.748225,7.408000,2379.749737

1.797010,-0.494438,9.863349,16.100588,0.044955,-1.159365,0.997101,7.392000,2379.749737

1.147960,4.738680,9.870534,16.071175,0.392422,-0.578744,1.320320,7.408000,2379.749737

-0.399222,5.562567,6.723478,16.047646,0.112370,-0.610453,1.839656,7.388000,2379.749737

-4.473151,-2.017670,14.456997,16.071175,-0.196993,-0.478820,1.816473,7.392000,2379.749737

-1.333280,5.612862,10.162726,16.079998,0.329004,-0.484150,1.792492,7.404000,2379.749737

3.257972,1.213211,11.580578,16.079998,0.147276,-0.473758,2.294240,7.420000,2379.749737

-2.327213,-0.137580,8.658654,16.085880,-0.353940,-0.686927,2.188455,7.416000,2379.749737

-4.140243,7.172020,12.478710,16.071175,0.156603,-0.160398,2.012856,7.408000,2379.749737

4.335731,0.032467,5.870851,16.094706,0.170991,-0.597130,1.799953,7.416000,2379.749737

-0.423173,0.248018,7.928173,16.088821,0.045754,-0.345056,1.783699,7.428000,2379.749737

-0.545319,6.448724,10.395043,16.088821,-0.211649,-0.143610,1.637944,7.436000,2379.749737

3.736976,2.245465,9.803473,16.103529,0.086256,-0.241402,1.443692,7.436000,2379.749737

1.186280,5.277560,9.860954,16.103529,-0.033119,-0.091384,1.258235,7.456000,2379.749737

2.280804,4.020175,11.142290,16.118235,0.525120,0.027991,1.030942,7.456000,2379.749737

2.129918,0.303104,5.530758,16.127058,0.162465,-0.137215,0.675481,7.456000,2379.749737

2.010167,3.081326,8.998747,16.132940,-0.215379,0.273137,0.441793,7.468000,2379.749737

1.068924,0.954549,10.519585,16.144705,0.274112,0.368797,0.187055,7.468000,2379.749737

-0.598009,8.209064,5.715175,16.147646,0.219754,0.449269,-0.015456,7.480000,2379.749737

-4.094738,-2.606845,8.926897,16.147646,0.055347,0.301648,-0.202513,7.472000,2379.749737

3.885468,1.227581,5.339157,16.127058,-0.171146,0.075688,-0.154283,7.472000,2379.749737

-3.342701,-1.593752,16.229311,16.132940,0.235475,0.653912,-0.201447,7.476000,2379.749737

2.642452,0.861143,4.773932,16.144705,-0.110126,0.327229,-0.126038,7.480000,2379.749737

-0.363297,-2.333813,7.638376,16.144705,0.157402,0.444472,-0.057557,7.468000,2379.749737

1.088085,3.450159,10.644126,16.144705,-0.454929,0.320834,0.240348,7.464000,2379.749737

4.215980,-1.828464,5.557104,16.118235,0.315148,0.079152,0.264862,7.464000,2379.749737

2.596947,-3.607963,11.738649,16.129999,-0.451731,0.292056,0.545447,7.452000,2379.749737

-0.413593,6.712176,14.023499,16.138823,-0.257480,0.653912,0.638443,7.432000,2379.749737

7.279211,-9.257814,9.233459,16.135881,0.147276,0.071958,0.452186,7.448000,2379.749737

-3.359467,6.422379,4.991879,16.135881,0.466765,0.825514,0.512672,7.444000,2379.749737

-3.230135,4.824901,11.582973,16.124117,-0.212714,0.430883,0.510807,7.432000,2379.749737

0.793497,1.282667,7.578500,16.109411,0.232811,0.293921,0.416746,7.428000,2379.749737

-0.032785,0.288734,13.000825,16.124117,-0.024059,0.339220,0.394097,7.432000,2379.749737

1.310822,6.688226,7.588080,16.129999,0.230946,0.369330,0.387968,7.440000,2379.749737

2.177819,4.087235,5.846901,16.132940,0.220021,0.352276,0.219031,7.444000,2379.749737

-3.091224,0.396510,11.707515,16.121176,-0.278264,0.410631,0.123904,7.436000,2379.749737

3.847147,5.806859,10.859677,16.129999,0.482753,0.478846,0.299769,7.448000,2379.749737

1.337167,0.976104,4.359594,16.124117,0.190710,0.390913,0.557705,7.436000,2379.749737

-0.425568,5.905055,8.270661,16.127058,-0.108261,0.434613,0.501748,7.440000,2379.749737

-0.166906,-0.484858,12.928974,16.132940,-0.126114,0.405036,0.459913,7.452000,2379.749737

2.302360,6.120606,6.857599,16.124117,0.490746,0.609945,0.426872,7.460000,2379.749737

-3.175050,6.163717,11.786550,16.124117,-0.050705,0.745575,0.218231,7.476000,2379.749737

-3.100805,5.129068,3.854245,16.132940,-0.093073,0.661639,-0.193986,7.476000,2379.749737

0.704881,4.714730,11.032119,16.144705,-0.187134,0.672831,-0.365854,7.480000,2379.749737

-0.243546,2.465806,13.956438,16.138823,-0.115722,0.730919,-0.405024,7.476000,2379.749737

-1.407526,11.444735,1.600532,16.138823,0.665546,0.759964,-0.573429,7.488000,2379.749737

-7.419024,-4.436640,12.107483,16.147646,-0.643318,0.121786,-0.817508,7.488000,2379.749737

-6.834640,7.480978,10.912368,16.127058,0.020440,0.864684,-0.735704,7.480000,2379.749737

-1.606312,-8.146525,7.997629,16.129999,0.277576,-0.554762,-1.278488,7.488000,2379.749737

0.759967,0.724627,8.028764,16.129999,0.110238,-0.495074,-1.391735,7.476000,2379.749737

-5.946088,-6.977756,13.209191,16.138823,-0.336087,-0.438052,-1.251842,7.456000,2379.749737

-2.233808,3.071746,12.909814,16.153528,0.223218,-0.241136,-0.992841,7.456000,2379.749737

-0.284262,-2.709831,6.852809,16.135881,0.212826,-0.564355,-0.947275,7.440000,2379.749737

3.566930,0.111502,10.490845,16.153528,-0.269471,-0.979237,-0.690406,7.428000,2379.749737

2.280804,0.559371,11.899116,16.144705,0.292232,-0.148673,-0.303769,7.416000,2379.749737

1.387462,-1.596147,10.409413,16.171175,-0.052571,-0.304820,-0.327484,7.408000,2379.749737

-0.473468,4.657249,12.948134,16.165293,0.058011,-0.160398,0.033573,7.404000,2379.749737

1.135985,7.258241,8.165280,16.177057,0.248266,0.004276,-0.028513,7.404000,2379.749737

3.186122,1.218001,9.346025,16.174116,0.041757,-0.276842,-0.268596,7.424000,2379.749737

-3.033744,6.592425,9.072993,16.168234,-0.227903,-0.167059,-0.461781,7.424000,2379.749737

-1.005162,2.180799,8.629914,16.185881,0.171258,-0.092716,-0.529462,7.420000,2379.749737

-0.837511,2.451436,7.473119,16.171175,0.811034,-0.168392,-0.579557,7.440000,2379.749737

-7.766303,6.479859,5.959467,16.162352,-0.094672,-0.241136,-0.426608,7.424000,2379.749737

-2.238597,5.164994,10.850098,16.159410,-0.382984,-0.291231,-0.379444,7.420000,2379.749737

3.703446,-0.063334,8.608358,16.165293,-0.011002,-0.579810,-0.354396,7.432000,2379.749737

-2.042206,6.340948,4.527246,16.168234,0.721769,-0.236872,0.023980,7.448000,2379.749737

-5.162916,12.395557,5.755890,16.182940,-0.002476,-0.361044,0.131631,7.452000,2379.749737

3.595670,-3.545693,10.371094,16.162352,-0.015532,-0.241669,0.495352,7.460000,2379.749737

-1.522487,0.968919,10.771062,16.174116,-0.212448,-0.072465,0.513205,7.472000,2379.749737

-0.669860,9.468843,9.928015,16.174116,0.565622,0.050641,0.493221,7.488000,7.388852

2.158659,3.464530,4.905658,16.179998,-0.106662,-0.427127,0.495086,7.480000,7.388852

0.400714,4.894356,8.835886,16.168234,-0.218843,-0.168392,0.570761,7.484000,7.388852

1.078505,-0.623769,8.555669,16.165293,0.294097,0.206521,0.556639,7.488000,7.388852

-3.661239,8.074943,14.528848,16.168234,-0.220975,0.101269,0.198513,7.488000,7.388852

8.263563,-0.939911,6.256449,16.177057,-0.049373,-0.079659,0.281383,7.496000,7.388852

0.783917,3.155572,13.673825,16.177057,-0.254549,0.269140,0.653098,7.480000,7.388852

1.567089,1.795201,13.372053,16.171175,-0.113324,0.322965,0.454584,7.472000,7.388852

0.039066,2.815479,13.034355,16.174116,-0.204987,0.386650,0.109248,7.464000,7.388852

2.362235,-3.825910,7.123446,16.177057,0.044688,0.447670,-0.129502,7.472000,7.388852

-3.325936,2.259835,8.464658,16.162352,-0.151695,0.448203,-0.298706,7.444000,7.388852

-1.898505,-0.477673,11.111155,16.168234,0.002321,0.075155,-0.593147,7.436000,7.388852

-3.699559,-4.295334,12.133828,16.156469,0.187512,0.244359,-0.949674,7.456000,7.388852

-4.568952,5.703873,7.264753,16.150587,0.210428,0.058901,-0.851349,7.452000,7.388852

1.981427,-0.458512,5.092470,16.162352,-0.200457,-0.360245,-0.591548,7.444000,7.388852

-3.541488,8.194694,7.592870,16.135881,0.350587,0.367198,-0.406090,7.452000,7.388852

-0.557294,0.638407,12.097902,16.150587,-0.299048,-0.616848,-0.381842,7.444000,7.388852

-0.109425,3.680081,14.279765,16.168234,0.089188,-0.127090,0.076207,7.440000,7.388852

1.286871,3.653736,7.461144,16.144705,0.306088,0.054904,0.642973,7.452000,7.388852

-0.995582,5.751773,3.815924,16.156469,-0.208718,-0.027166,0.807647,7.440000,7.388852

0.486935,2.468201,7.647956,16.162352,-0.044044,-0.102309,0.734636,7.456000,7.388852

-0.748895,5.354200,13.218772,16.138823,0.000988,0.040782,0.807114,7.464000,7.388852

1.135985,4.760235,6.606122,16.132940,0.277843,0.200126,0.807380,7.468000,7.388852

-3.742670,4.369847,6.936635,16.141764,-0.138371,0.138573,1.003230,7.476000,7.388852

-7.553146,3.555540,9.458591,16.162352,-0.113058,0.095939,0.879591,7.476000,7.388852

0.577946,0.264784,11.594949,16.159410,0.209895,-0.016241,0.637111,7.480000,7.388852

-3.761830,1.598809,10.557905,16.185881,0.132621,0.364800,0.907303,7.492000,7.388852

-3.711535,4.412958,7.331813,16.182940,0.167527,0.056236,0.617392,7.492000,7.388852

-1.321305,3.835757,8.536509,16.185881,0.227748,0.192932,0.522265,7.488000,7.388852

-2.631381,3.189102,9.916039,16.197645,0.247466,-0.181182,0.427138,7.492000,7.388852

-3.819310,-0.139975,9.734018,16.182940,-0.198858,-0.139614,0.454584,7.480000,7.388852

-4.458781,-1.782958,8.943662,16.197645,0.143279,-0.208361,0.350930,7.476000,7.388852

-1.103358,-5.054555,9.029882,16.194704,0.174722,-0.463365,0.205974,7.476000,15.858294

2.649637,4.822506,10.402228,16.182940,-0.207652,-0.182248,0.301101,7.460000,15.858294

0.154027,-0.786630,11.235696,16.206469,0.105708,-0.065803,0.351463,7.456000,15.858294

-1.769174,-0.827345,10.330379,16.209410,0.172857,-0.186511,0.221429,7.444000,15.858294

1.011444,1.270692,8.182045,16.218235,0.094250,-0.125758,0.034905,7.432000,15.858294

1.258131,-0.068124,9.760364,16.209410,0.113436,-0.245133,0.326948,7.436000,15.858294

-1.077013,-0.089679,8.673024,16.224117,0.099846,-0.180915,0.698930,7.428000,15.858294

0.194742,2.556817,7.053991,16.206469,0.073999,-0.107638,0.654431,7.432000,15.858294

-2.334398,1.215606,10.253737,16.221176,-0.148763,0.026126,0.684541,7.432000,15.858294

-0.119005,3.419024,10.033396,16.203527,0.194707,-0.043154,0.840421,7.440000,15.858294

-0.176486,4.566239,6.268425,16.227058,-0.110393,0.063964,0.877993,7.420000,15.858294

-0.880621,4.353082,10.342353,16.209410,0.123028,0.082350,0.902774,7.428000,15.858294

-1.465006,4.096815,8.546088,16.209410,-0.000877,-0.032762,1.158844,7.440000,15.858294

-0.293842,1.692215,10.201047,16.224117,0.118232,0.059700,1.135928,7.444000,15.858294

1.603014,6.568475,10.761481,16.238823,-0.077884,0.196396,1.083702,7.460000,15.858294

2.402951,6.101446,7.444379,16.218235,0.603194,0.155893,1.081836,7.472000,15.858294

1.497633,1.756881,6.859994,16.227058,-0.623600,0.342950,0.638976,7.472000,15.858294

2.012562,5.162599,13.132551,16.200586,0.195772,0.410631,0.330945,7.472000,15.858294

0.494120,1.273087,7.583290,16.206469,-0.031520,0.305645,-0.107652,7.480000,15.858294

1.603014,7.540853,12.825989,16.224117,0.034563,0.531872,-0.655765,7.492000,15.858294

0.506095,1.689820,3.921305,16.206469,0.237074,0.305112,-1.033343,7.488000,15.858294

-2.298473,4.693175,6.198969,16.209410,-0.588693,0.322432,-1.308865,7.476000,15.858294

1.586249,-0.724360,17.575312,16.200586,-0.217511,0.230503,-1.260635,7.476000,15.858294

2.467616,2.966366,9.834609,16.212351,-0.177009,0.297918,-1.290479,7.472000,15.858294

2.932250,-0.046569,13.453484,16.206469,0.233077,0.473517,-1.484730,7.480000,15.858294

0.767152,1.718560,3.796764,16.203527,-0.123183,0.296053,-1.229726,7.468000,15.858294

0.441429,-2.793657,17.680693,16.188822,-0.376056,0.212650,-0.884657,7.468000,15.858294

1.806591,5.969720,11.920671,16.203527,-0.027523,0.314172,-0.568632,7.456000,15.858294

1.492843,-4.982704,7.022856,16.218235,-0.013933,-0.023169,-0.471373,7.440000,15.858294

-1.366810,0.283944,10.105247,16.197645,0.161665,0.129514,-0.203312,7.436000,15.858294

-3.040929,3.155572,9.286150,16.206469,-0.142901,0.082083,-0.141226,7.416000,15.858294

-2.753527,1.076695,9.676538,16.200586,0.230413,-0.032229,-0.133499,7.432000,15.858294

0.194742,2.585557,8.893367,16.188822,0.184048,-0.285369,-0.269128,7.436000,15.858294

1.622174,4.113580,8.215575,16.209410,0.200302,-0.238205,-0.232090,7.432000,15.858294

-0.483048,1.344937,10.771062,16.185881,-0.079483,-0.256058,-0.192121,7.432000,15.858294

-3.701954,8.113263,11.824870,16.185881,-0.019263,0.227305,-0.132167,7.428000,15.858294

0.597106,2.837034,8.919712,16.197645,0.206165,0.090344,-0.089266,7.424000,14.481990

0.515675,5.488321,6.019342,16.194704,0.175521,-0.054878,-0.012259,7.432000,14.481990

-1.285380,4.575819,10.083691,16.197645,-0.369394,0.037318,0.158544,7.424000,14.481990

1.983822,4.242911,4.630231,16.191763,0.252529,0.200126,0.128167,7.444000,14.481990

-1.009952,6.913358,10.150752,16.191763,-0.257214,0.148965,0.430069,7.460000,14.481990

-0.883016,2.587952,8.308981,16.191763,-0.070956,-0.112701,0.484161,7.452000,14.481990

-2.432594,5.514667,9.923224,16.188822,-0.089342,-0.037825,0.827098,7.472000,14.481990

1.401832,7.555223,1.990920,16.168234,0.460103,0.265143,1.310195,7.480000,14.481990

-7.447765,1.423973,14.871335,16.182940,-1.071257,0.061832,1.418112,7.472000,14.481990

2.012562,0.046837,9.104128,16.168234,0.524054,0.350944,1.108483,7.480000,14.481990

-6.166430,0.861143,8.275451,16.188822,-0.748837,-0.020771,0.937680,7.480000,14.481990

-3.654054,0.386930,9.923224,16.188822,0.167794,0.425820,0.608066,7.484000,14.481990

-9.814045,0.202513,14.971926,16.185881,-0.460525,0.525210,0.425806,7.496000,14.481990

1.430573,2.870565,15.783837,16.185881,0.078795,-0.151871,0.019717,7.492000,14.481990

-3.472033,0.643197,7.995234,16.203527,0.112636,0.012803,-0.107119,7.472000,14.481990

-4.956944,0.353399,8.134145,16.191763,0.315148,-0.147607,-0.258470,7.468000,14.481990

-4.779713,-6.484381,7.571315,16.194704,-0.332090,-0.134817,-0.450056,7.464000,14.481990

-3.122360,-3.684604,12.035632,16.171175,-0.182338,-0.233675,-0.494556,7.444000,14.481990

4.079464,3.996224,8.354486,16.182940,0.201901,-0.040223,-0.192654,7.456000,14.481990

4.766835,1.064720,5.497228,16.191763,-0.182871,-0.454039,-0.146556,7.432000,14.481990

3.071161,1.847891,8.673024,16.168234,0.268783,0.106331,-0.130568,7.436000,14.481990

-1.043483,4.185431,9.422666,16.174116,-0.195661,0.188935,-0.116445,7.420000,14.481990

-0.732130,5.009317,6.436076,16.177057,0.357249,0.091942,-0.223563,7.436000,14.481990

-1.888925,5.945770,8.126960,16.191763,0.105708,-0.134551,-0.601674,7.424000,14.481990

1.320402,-0.918356,9.168794,16.179998,-0.080549,-0.304554,-0.647505,7.424000,14.481990

-0.111820,4.161480,9.872930,16.194704,0.052949,0.054904,-0.451389,7.428000,14.481990

-3.136730,5.155414,9.238249,16.194704,-0.069624,0.058368,-0.432736,7.432000,14.481990

-3.431317,-4.192348,9.281360,16.165293,0.076664,-0.147075,-0.508678,7.444000,14.481990

-3.177445,11.801593,8.440707,16.171175,0.710312,-0.065271,-0.236620,7.452000,14.481990

-1.908085,2.937625,5.207431,16.182940,-0.690748,-0.442048,0.009058,7.444000,14.481990

-3.381022,2.235884,10.732741,16.200586,0.015377,-0.102842,0.236084,7.456000,14.481990

-1.012347,7.720479,8.771220,16.200586,0.337531,-0.089519,0.019184,7.468000,14.481990

1.691630,-0.415402,12.394885,16.203527,-0.246822,-0.568885,-0.111116,7.472000,14.481990

-0.638724,5.100328,8.191626,16.188822,0.139549,-0.046085,0.122571,7.484000,14.481990

1.432967,12.781156,4.589516,16.188822,0.098780,0.166552,0.006927,7.472000,14.481990

0.453404,-1.512321,7.137816,16.179998,-0.484773,-0.407142,-0.436733,7.472000,14.481990

1.150355,5.979300,12.976874,16.174116,0.045221,-0.070067,-0.393300,7.476000,14.481990

3.339403,4.599769,9.714858,16.179998,0.000455,-0.031163,-0.512942,7.484000,14.481990

1.864071,-1.909894,4.424260,16.188822,0.265053,0.132711,-0.451122,7.484000,14.481990

-2.870883,5.854759,15.003061,16.174116,0.016710,0.228105,-0.624589,7.480000,14.481990

5.128483,1.910162,14.195940,16.174116,0.241338,-0.074330,-0.439664,7.480000,14.481990

0.791102,1.651500,9.786709,16.174116,0.214425,0.037051,-0.299505,7.488000,14.481990

-1.395551,2.425091,6.335485,16.182940,0.090786,-0.021304,-0.325619,7.472000,14.481990

-1.273405,-2.913408,14.277370,16.182940,0.180851,0.028524,-0.176932,7.468000,14.481990

-3.225345,0.954549,6.967770,16.174116,0.002321,-0.299491,-0.151352,7.472000,14.481990

0.858163,-0.082494,8.632309,16.168234,0.149674,-0.035960,-0.148421,7.452000,14.481990

-0.047155,1.673055,8.359277,16.179998,-0.267606,-0.330934,-0.123373,7.456000,14.481990

2.041302,0.212093,8.589199,16.162352,-0.020861,-0.023702,-0.046899,7.444000,14.481990

-0.665070,2.413116,6.517507,16.185881,0.350854,-0.031430,-0.100458,7.440000,14.481990

-1.836234,5.481136,10.905183,16.168234,-0.166616,-0.194771,-0.158546,7.444000,14.481990

0.012721,6.585240,8.153305,16.179998,0.055347,0.116990,-0.180663,7.440000,14.481990

3.145406,-0.408217,10.514794,16.165293,-0.333955,-0.301356,-0.190788,7.428000,14.481990

-0.425568,4.547079,6.610912,16.177057,0.375901,0.175612,-0.165208,7.436000,14.481990

0.977914,5.869129,8.222761,16.168234,-0.106129,-0.148407,0.007726,7.448000,14.481990

0.671351,2.264625,9.475356,16.171175,-0.123183,0.099403,0.373313,7.440000,14.481990

2.125128,3.828573,12.069162,16.168234,-0.029921,0.084215,0.552642,7.456000,14.481990

-0.092660,9.346698,9.631032,16.153528,0.316746,0.188135,0.645637,7.456000,14.481990

0.333654,5.907450,5.233776,16.174116,-0.075220,0.097005,0.969656,7.472000,14.481990

-4.573741,1.189261,6.424101,16.177057,-0.532736,0.128981,1.230522,7.464000,14.481990

-3.771410,12.759601,9.611873,16.165293,0.449445,0.449801,0.933683,7.468000,14.481990

3.332218,-1.244079,12.636782,16.177057,0.038826,-0.319209,0.792458,7.484000,14.481990

-6.022728,2.302945,9.777128,16.179998,-0.313970,0.112460,0.934483,7.488000,14.481990

-4.602482,4.286021,14.947976,16.188822,0.265319,0.057569,1.005895,7.484000,14.481990

-6.564003,-1.790143,5.710385,16.174116,-0.271869,-0.305087,0.908369,7.480000,14.481990

-1.575177,2.623878,10.304033,16.171175,0.054281,0.088212,0.649101,7.484000,14.481990

-0.095055,3.888448,13.714540,16.165293,-0.296650,-0.197969,0.647236,7.488000,14.481990

3.804037,-6.352655,9.360395,16.165293,0.310618,-0.484682,0.765279,7.492000,14.481990

-4.327055,3.708822,4.163202,16.179998,0.181384,0.222775,0.672816,7.480000,14.481990

-4.271969,2.195169,8.366462,16.174116,-0.096004,0.112193,0.320819,7.476000,14.481990

3.358563,-5.236576,12.464340,16.165293,-0.294518,-0.163329,0.181193,7.472000,7.541770

1.114430,-3.861835,9.334050,16.168234,0.028434,0.063697,0.288578,7.460000,7.541770

-1.091383,-1.993720,11.326706,16.162352,-0.129845,0.644319,0.246476,7.464000,7.541770

-2.784662,7.521693,10.823752,16.182940,0.071335,0.379988,-0.178798,7.448000,7.541770

1.835331,-1.265634,6.754613,16.182940,0.239739,-0.060208,-0.395432,7.452000,7.541770

0.781522,1.069510,8.783195,16.171175,-0.254016,0.153762,-0.474038,7.452000,7.541770

-2.492470,2.997501,8.117380,16.171175,-0.073355,0.328561,-0.876663,7.440000,7.541770

-2.875673,3.066956,10.203442,16.188822,-0.046975,0.085014,-1.437300,7.464000,7.541770

0.383949,1.783226,7.243197,16.168234,0.370838,-0.318410,-1.362957,7.460000,7.541770

-2.430199,9.969403,9.762758,16.171175,-0.123183,-0.047151,-1.133799,7.464000,7.541770

1.092875,-3.433127,7.588080,16.171175,0.062008,-0.349852,-0.907839,7.464000,7.541770

-4.683912,4.590189,7.734177,16.179998,0.011913,-0.232076,-0.810314,7.472000,7.541770

-1.575177,4.024964,6.768983,16.185881,0.473426,-0.171589,-0.869735,7.472000,7.541770

-0.844696,7.253451,7.698251,16.179998,-0.269471,-0.430324,-0.719716,7.476000,7.541770

1.804196,6.762472,9.511281,16.159410,0.107573,-0.235274,-0.468975,7.476000,7.541770

0.961149,0.013306,8.174860,16.168234,-0.263609,-0.363442,-0.433536,7.476000,7.541770

-2.605036,6.120606,4.024292,16.171175,0.874985,0.166818,-0.440464,7.492000,7.541770

-5.919743,4.314762,9.144843,16.177057,-0.455462,-0.576079,-0.760485,7.496000,7.541770

4.450692,8.096498,11.458432,16.159410,0.491013,-0.179050,-0.508145,7.500000,7.541770

4.115389,-0.379477,12.485896,16.185881,-0.620402,-0.461500,-0.299239,7.504000,7.541770

0.470170,0.094737,7.101892,16.171175,0.518459,0.039183,0.077273,7.508000,7.541770

-0.399222,4.058495,11.436877,16.177057,-0.177808,-0.339993,0.202777,7.500000,7.541770

7.394171,0.640802,8.301796,16.179998,-0.117854,-0.314946,0.201977,7.480000,7.541770

4.577628,-1.306349,12.380515,16.182940,0.431325,0.072757,0.397028,7.492000,7.541770

0.166002,8.558736,10.311218,16.177057,-0.250552,-0.036226,0.254737,7.476000,7.541770

6.907982,-4.458195,5.252936,16.171175,0.026569,-0.161730,0.180660,7.472000,7.541770

-9.320671,5.991275,18.015995,16.177057,-0.136240,0.390114,0.275787,7.456000,7.541770

8.438399,-6.484381,5.090075,16.197645,0.141414,-0.294961,0.015187,7.460000,7.541770

-5.970038,5.040452,11.503938,16.182940,-0.119186,0.039449,0.164939,7.448000,7.541770

3.078346,-2.376923,10.574670,16.174116,-0.158090,0.001079,0.290176,7.432000,7.541770

0.501305,0.741392,11.353051,16.168234,-0.220975,-0.052214,0.359190,7.408000,7.541770

-1.879345,2.578372,10.021420,16.165293,-0.074420,0.106065,0.298170,7.416000,7.541770

-0.839906,8.029437,9.559182,16.177057,0.117433,0.121520,0.336008,7.424000,7.541770

2.125128,3.931558,4.874523,16.147646,0.189111,0.005342,0.369049,7.448000,15.008879

-2.870883,8.654537,3.006408,16.168234,-0.143434,0.015201,0.371447,7.432000,15.008879

-2.087711,-2.027250,15.412609,16.162352,-0.318767,-0.076195,0.591012,7.444000,15.008879

0.759967,7.397152,8.653864,16.159410,0.733760,0.435412,0.936081,7.472000,15.008879

-1.074618,2.065838,11.578183,16.159410,-0.259079,-0.168658,1.194017,7.460000,15.008879

-1.072223,9.392203,3.736889,16.138823,0.267717,0.415694,1.312859,7.468000,15.008879

-1.148864,-2.604450,7.746151,16.171175,-0.540730,0.068227,1.420510,7.464000,15.008879

-0.586034,4.796161,10.490845,16.144705,0.231745,0.455131,1.229723,7.484000,15.008879

1.502423,6.767262,8.320956,16.182940,0.174455,0.496965,0.990440,7.484000,15.008879

-0.849486,5.157809,6.038503,16.156469,0.200835,0.420491,0.629650,7.484000,15.008879

3.416044,5.076378,7.082731,16.174116,0.201901,0.263544,0.106850,7.496000,15.008879

1.502423,0.832403,9.583132,16.153528,0.055347,0.709602,0.044764,7.496000,15.008879

-3.062484,8.010277,14.140854,16.171175,-0.147431,0.810858,-0.381043,7.500000,15.008879

-2.281708,-3.150514,8.232341,16.162352,0.154471,0.220111,-1.066651,7.488000,15.008879

-6.513707,-2.396083,11.154264,16.153528,-0.148497,0.304046,-1.236387,7.488000,15.008879

-4.025282,0.628826,9.235854,16.179998,0.157402,0.001612,-1.227594,7.468000,15.008879

-2.461334,-6.144289,12.464340,16.177057,-0.302779,-0.143078,-1.321922,7.468000,15.008879

-0.866251,4.537498,4.967929,16.159410,0.166728,0.074622,-1.394399,7.456000,15.008879

-1.388366,-10.519989,19.687719,16.171175,-0.379786,-0.355448,-1.473805,7.432000,15.008879

7.700734,12.086600,7.338998,16.150587,1.162498,0.135909,-1.353897,7.448000,15.008879

-3.019374,-0.666879,5.913961,16.168234,-0.569774,-0.255791,-1.156715,7.424000,15.008879

-1.690138,-2.046410,12.799644,16.165293,0.153671,0.016267,-1.358427,7.428000,15.008879

-2.339188,0.985684,3.700963,16.153528,0.336731,0.052772,-1.541220,7.444000,15.008879

-7.373519,11.329774,14.574352,16.188822,-0.151961,-0.010646,-1.366154,7.436000,15.008879

-0.169301,-4.740807,8.091035,16.159410,0.117433,-0.551831,-1.572663,7.448000,15.008879

-6.767580,0.329449,10.632151,16.174116,0.160599,-0.391687,-1.580390,7.448000,15.008879

-3.931876,4.872801,10.299243,16.156469,0.257858,-0.313880,-1.455952,7.440000,15.008879

-2.506840,-0.468093,5.413403,16.168234,-0.064295,-0.584606,-1.263033,7.448000,15.008879

-6.504127,9.109591,10.038186,16.168234,0.705249,-0.403678,-0.834828,7.460000,15.008879

-2.885253,3.126832,4.112907,16.165293,0.205365,-0.890505,-0.665891,7.460000,15.008879

-2.197882,-3.495397,11.403347,16.171175,0.181117,-0.836146,-0.246479,7.476000,15.008879

-1.488956,9.557460,9.456196,16.171175,0.769466,-0.585139,0.220896,7.480000,15.008879

-0.847091,9.071271,4.603886,16.182940,0.573616,-0.678401,0.495352,7.484000,15.008879

-0.806376,8.285704,5.743915,16.153528,0.132354,-0.686661,0.620057,7.480000,15.008879

1.682050,1.376073,8.201205,16.168234,-0.200191,-0.716771,0.792991,7.488000,15.008879

2.992125,0.887489,12.466736,16.168234,0.033497,-0.300290,0.967790,7.496000,15.008879

2.491566,5.682318,9.472961,16.168234,-0.173012,-0.214756,0.758884,7.488000,15.008879

1.708395,9.270057,4.385939,16.171175,0.634370,-0.045286,0.808446,7.492000,15.008879

3.325033,-0.286071,7.640771,16.153528,-0.109061,-0.541173,0.684541,7.496000,15.008879

-1.666188,1.222791,14.799484,16.162352,-0.264675,-0.078860,0.721579,7.492000,15.008879

0.266593,-3.531322,6.893525,16.150587,0.419335,0.167085,0.762348,7.492000,15.008879

-0.171696,8.355160,9.164003,16.159410,-0.467186,0.242494,0.844152,7.484000,15.008879

0.427059,-9.394330,9.597502,16.159410,-0.038448,-0.094048,0.795922,7.480000,15.008879

-0.806376,1.960457,6.649232,16.159410,0.506468,0.087412,0.588081,7.480000,15.008879

-4.104318,-2.537390,13.053515,16.162352,-0.589492,-0.060208,0.544115,7.464000,15.008879

1.643729,-1.950610,10.418994,16.168234,-0.195661,0.222775,0.674415,7.448000,15.008879

3.667521,-1.737453,7.808422,16.144705,0.220021,0.279265,0.690669,7.452000,15.008879

-2.595455,8.939545,11.331496,16.144705,0.224817,0.632595,0.650167,7.440000,15.008879

1.866466,0.736602,7.338998,16.153528,-0.013134,0.207054,0.310960,7.452000,15.008879

-1.191974,2.499337,8.749665,16.150587,-0.264408,0.212650,0.144421,7.440000,15.008879

-0.897387,5.505086,11.781760,16.144705,-0.072555,0.502561,0.263530,7.452000,15.008879

1.610199,3.862103,11.719489,16.156469,0.270382,0.434880,0.064216,7.476000,15.008879

-3.536698,6.688226,10.011841,16.141764,-0.067492,0.415161,-0.109251,7.460000,15.008879

0.046251,2.825059,6.256449,16.153528,0.054547,0.058102,-0.201180,7.452000,15.008879

-1.251849,2.082603,11.252460,16.162352,-0.061630,0.242760,-0.152951,7.472000,15.008879

-2.509235,0.518656,6.831254,16.156469,-0.080283,0.394910,-0.304568,7.472000,15.008879

-3.021769,9.016185,13.182846,16.147646,0.056946,0.422622,-0.416216,7.476000,15.008879

1.073714,4.822506,5.446933,16.162352,0.279708,0.123118,-0.350133,7.496000,15.008879

-4.997660,1.529354,14.890495,16.135881,-0.381385,-0.043154,-0.227027,7.488000,15.008879

-0.368087,5.794884,6.701923,16.153528,0.314615,0.199593,-0.339741,7.492000,15.008879

-7.220238,-0.286071,10.198652,16.162352,-0.569508,-0.258456,-0.160412,7.496000,15.008879

-0.037575,5.969720,6.258844,16.159410,0.431059,0.654711,-0.114314,7.500000,15.008879

-9.181760,-1.198573,9.882509,16.156469,-0.325961,-0.341859,-0.278188,7.504000,15.008879

-3.761830,1.771251,12.339800,16.135881,-0.100001,0.013336,-0.191321,7.496000,15.008879

2.838844,-0.963862,9.175979,16.147646,0.281840,-0.517457,-0.195851,7.508000,15.008879

-9.711059,6.508600,8.052714,16.141764,0.020707,0.025327,0.114578,7.500000,15.008879

-2.109267,1.131781,11.808105,16.147646,-0.081881,-0.896367,-0.217168,7.496000,15.008879

-0.914152,-7.238812,11.424902,16.147646,-0.012068,-0.900097,-0.435401,7.484000,15.008879

4.431532,-1.227314,8.572433,16.147646,0.355117,-0.932339,0.024513,7.476000,7.697024

1.054554,-1.220129,10.917158,16.156469,-0.121318,-0.560358,0.385037,7.460000,7.697024

0.427059,-2.127841,11.604528,16.153528,0.196572,-0.430591,0.565166,7.456000,7.697024

1.157540,3.615416,4.560776,16.159410,0.379099,-0.332532,0.616593,7.444000,7.697024

1.959872,-2.767311,13.367263,16.179998,-0.432813,-0.305886,0.875861,7.424000,7.697024

4.433927,5.069193,8.244316,16.168234,0.431325,-0.209427,1.153248,7.432000,7.697024

0.273778,3.241793,8.524533,16.144705,-0.052571,-0.055678,1.138326,7.424000,7.697024

0.338444,3.969878,8.656260,16.153528,0.201102,-0.132419,0.852412,7.436000,7.697024

2.865189,-0.048964,7.305468,16.179998,0.019374,-0.131886,0.751956,7.428000,7.697024

1.574274,5.660763,7.394083,16.177057,0.085457,0.030123,0.670951,7.428000,7.697024

-1.738038,3.316038,9.482541,16.177057,0.265319,0.298451,0.259267,7.452000,7.697024

-2.025441,-0.084889,12.428415,16.162352,-0.212448,0.091143,0.024247,7.456000,7.697024

2.568207,11.461500,4.903264,16.165293,0.651956,0.163354,-0.026115,7.460000,7.697024

-1.211134,6.700201,7.738966,16.162352,-0.479177,0.005875,-0.076210,7.468000,7.697024

-2.849328,-2.539784,10.299243,16.159410,0.302091,-0.090052,0.020250,7.468000,7.697024

-3.742670,8.398270,10.926738,16.168234,-0.022460,0.146567,-0.027980,7.484000,7.697024

-0.847091,1.031190,8.392807,16.174116,-0.024326,-0.062073,-0.070347,7.480000,7.697024

0.546810,8.563526,10.035790,16.171175,0.002054,-0.035693,0.262997,7.496000,7.697024

0.362394,-2.546969,7.576105,16.162352,0.109439,-0.203298,0.382639,7.500000,7.697024

-3.953431,16.756887,10.797407,16.156469,0.710312,0.530007,0.243545,7.508000,7.697024

10.589127,2.003568,6.333090,16.168234,-0.033652,-0.442315,-0.079407,7.496000,7.697024

2.735858,-3.037949,9.686118,16.177057,-0.536733,0.110062,0.484694,7.492000,7.697024

0.134867,2.195169,8.981982,16.168234,0.220021,0.584898,0.544382,7.436000,7.697024

-3.424132,6.120606,10.797407,16.171175,0.012446,0.429284,0.466308,7.448000,7.697024

0.273778,0.767738,7.444379,16.171175,-0.041113,0.189734,0.463910,7.452000,7.697024

-0.471073,4.628509,11.288386,16.168234,-0.137306,0.233434,0.463910,7.452000,7.697024

3.253182,0.322264,7.930568,16.156469,0.355650,0.370129,0.401025,7.460000,7.697024

-4.159403,5.038058,7.334208,16.188822,0.063074,0.397841,0.085533,7.456000,7.697024

-1.558412,7.550433,11.920671,16.165293,-0.319299,0.304046,0.043965,7.456000,7.697024

3.459154,-0.094469,8.395202,16.177057,-0.059499,0.334956,0.046097,7.464000,14.558103

0.534835,7.471397,5.238566,16.162352,0.631705,0.570509,-0.071680,7.472000,14.558103

-0.250731,0.485125,9.805869,16.171175,-0.351541,0.039716,-0.289646,7.476000,14.558103

0.127682,6.249938,8.838281,16.156469,-0.016332,0.628864,-0.354929,7.472000,14.558103

-1.237479,3.440579,8.649075,16.165293,0.153938,0.470319,-0.384773,7.476000,14.558103

-1.685348,5.984090,4.819438,16.156469,-0.034984,0.572374,-0.548648,7.492000,14.558103

0.702486,4.113580,10.093271,16.165293,-0.197260,0.406901,-0.651236,7.488000,14.558103

-3.268456,2.628668,7.334208,16.156469,-0.186068,0.438877,-0.415683,7.500000,14.558103

-4.710258,3.105277,11.036909,16.179998,-0.043244,0.409832,-0.291511,7.512000,14.558103

-4.099528,7.227106,6.795329,16.168234,0.093451,0.441808,-0.240350,7.504000,14.558103

-6.875355,-2.101496,7.154582,16.171175,-0.047241,-0.132952,-0.283517,7.504000,14.558103

-7.572306,-0.736335,13.592395,16.135881,-0.465054,-0.366373,-0.309098,7.512000,14.558103

-0.794401,1.773646,10.323193,16.153528,0.488082,-0.150539,-0.418614,7.512000,14.558103

-7.265743,-1.050082,7.200087,16.171175,0.264786,-0.416202,-0.181995,7.500000,14.558103

-3.584598,-5.133590,12.095508,16.162352,-0.502359,-0.661614,0.016786,7.492000,14.558103

0.946778,-1.541061,10.150752,16.162352,-0.125048,-0.287767,0.072743,7.480000,14.558103

0.668956,1.285062,13.015195,16.144705,0.224817,-0.447378,0.141224,7.472000,14.558103

3.679496,-2.024855,6.886340,16.162352,0.613053,-0.564621,0.058620,7.456000,14.558103

3.495080,0.008516,9.207114,16.147646,-0.378188,0.000279,-0.161478,7.448000,14.558103

3.818407,1.658685,12.497870,16.150587,0.127558,-0.179583,-0.180130,7.444000,14.558103

4.194425,1.268297,5.597819,16.147646,0.186713,-0.128689,0.032241,7.436000,14.558103

-2.794242,5.598492,8.720924,16.168234,0.070802,-0.098578,-0.212105,7.424000,14.558103

-0.336952,2.772369,10.246552,16.153528,-0.024858,-0.207561,-0.274191,7.428000,14.558103

2.146683,1.282667,12.478710,16.153528,-0.026990,-0.317877,-0.002666,7.436000,14.558103

1.109640,4.197406,4.366779,16.165293,0.547769,0.131645,0.280584,7.444000,14.558103

-4.837194,7.476188,10.893208,16.177057,-0.368329,-0.070333,0.361322,7.452000,14.558103

-1.139284,9.234132,11.453642,16.156469,0.183782,0.172947,0.302966,7.452000,14.558103

-2.640961,2.844219,7.171347,16.150587,0.046287,0.030922,-0.026914,7.468000,14.558103

1.088085,6.302628,3.768024,16.156469,0.014312,-0.123626,-0.162543,7.476000,14.558103

-1.187184,6.393639,6.237289,16.159410,-0.077352,0.034919,-0.442329,7.476000,14.558103

-0.559689,4.891962,8.486213,16.159410,-0.219110,-0.002119,-0.841223,7.488000,14.558103

-1.376390,6.194852,12.964900,16.153528,0.547503,0.138040,-1.313661,7.496000,14.558103

-0.681835,4.499178,6.663603,16.156469,-0.305177,-0.618447,-1.497787,7.492000,14.558103

-0.401617,1.886212,10.160332,16.144705,-0.110659,0.115658,-1.165775,7.500000,14.558103

2.735858,0.161798,14.061818,16.162352,-0.426151,-0.106039,-1.091165,7.504000,14.558103

1.368302,3.414234,7.600055,16.141764,0.762272,0.066362,-0.698133,7.512000,14.558103

-2.552345,8.158768,11.417717,16.177057,-0.423486,-0.128955,-0.568632,7.500000,14.558103

2.910695,-1.943424,10.567485,16.147646,-0.009137,0.048242,-0.448458,7.500000,14.558103

-0.413593,1.577254,10.359118,16.153528,-0.009404,-0.187310,-0.257404,7.500000,14.558103

-1.345255,2.609508,5.252936,16.144705,0.267717,-0.141479,0.050893,7.500000,14.558103

4.242325,-5.552719,7.537785,16.138823,0.259191,-0.302689,0.347999,7.488000,14.558103

0.132472,-4.477355,11.712304,16.147646,-0.249753,-0.275243,0.588081,7.480000,14.558103

-2.396669,-0.721965,9.508886,16.144705,0.015910,0.351210,0.605934,7.472000,14.558103

-1.227899,-3.378041,12.071557,16.127058,-0.117321,0.265409,0.463910,7.460000,14.558103

1.219811,4.235726,8.584409,16.129999,-0.025125,0.201725,0.485760,7.448000,14.558103

-0.174091,1.198841,8.198811,16.156469,-0.000344,0.197195,0.605668,7.444000,14.558103

-2.446964,-0.048964,10.938713,16.162352,-0.223639,0.192132,0.339205,7.436000,14.558103

-2.923573,0.348609,8.649075,16.159410,0.081727,0.235299,0.022914,7.444000,14.558103

-4.815639,12.093785,8.170071,16.144705,0.542174,0.275002,-0.054626,7.452000,14.558103

0.865348,1.347332,5.528364,16.165293,-0.413894,-0.483084,-0.154017,7.452000,14.558103

-2.054181,3.481295,13.831897,16.141764,-0.305443,0.202258,-0.010926,7.448000,14.558103

-1.819469,4.254886,7.233617,16.156469,0.143279,0.161756,-0.204378,7.480000,14.558103

-3.402577,7.167230,11.784155,16.150587,-0.220708,0.032521,-0.203845,7.468000,14.558103

2.465221,2.547237,2.187311,16.144705,0.167794,-0.035427,-0.116179,7.484000,14.558103

-2.027836,2.501732,12.976874,16.153528,-0.512218,-0.006382,0.128434,7.488000,14.558103

1.224601,9.935872,5.422983,16.162352,0.719638,0.346148,0.351196,7.496000,14.558103

-2.260153,-2.075150,15.855688,16.144705,-0.755765,-0.669874,0.225959,7.488000,14.558103

-1.335675,11.978825,5.916357,16.168234,1.090554,0.904919,0.496418,7.496000,14.558103

-2.276918,-2.736176,8.692184,16.135881,-0.824779,-0.776192,0.217965,7.508000,14.558103

-3.680399,3.174732,10.327983,16.153528,0.235209,0.845232,0.332810,7.504000,14.558103

-4.583322,2.781949,8.730505,16.150587,0.043622,0.049042,-0.152151,7.508000,14.558103

-5.761671,-2.958913,5.372687,16.144705,-0.281462,-0.280572,-0.229159,7.512000,14.558103

1.849701,1.035980,15.115627,16.141764,-0.318500,-0.535843,-0.236354,7.500000,14.558103

-0.377667,-0.463302,9.156818,16.138823,0.415870,-0.119629,-0.086868,7.492000,14.558103

-6.422697,1.167706,14.579143,16.153528,0.280774,-0.180649,-0.228626,7.496000,14.558103

-2.657726,-6.630477,6.019342,16.144705,-0.188200,-0.803638,-0.157481,7.488000,14.558103

-3.172655,6.978024,10.299243,16.162352,0.321276,-0.046618,0.240348,7.476000,14.558103

1.521583,-8.026774,8.282637,16.162352,0.039093,-0.818293,0.007193,7.472000,7.753839

-1.239874,9.157491,10.253737,16.165293,0.222152,-0.193972,0.124703,7.464000,7.753839

3.842357,-1.064452,9.525652,16.141764,0.146210,-0.334398,0.297904,7.460000,7.753839

3.950133,7.207945,4.922423,16.147646,0.146743,-0.357846,0.665888,7.456000,7.753839

-2.899623,-1.002182,10.826147,16.165293,0.231478,-0.269647,0.300835,7.464000,7.753839

2.101178,9.382623,9.468171,16.138823,0.384961,-0.240869,0.339205,7.472000,7.753839

0.089361,-2.796052,12.641572,16.129999,-0.266273,-0.310949,0.491622,7.464000,7.753839

1.013839,5.620048,6.098378,16.138823,0.679135,0.097005,0.671751,7.464000,7.753839

-2.727181,2.693333,4.539220,16.132940,-0.347012,-0.137482,0.509741,7.468000,7.753839

-1.951195,1.603599,9.935200,16.141764,-0.311839,0.040782,0.564633,7.460000,7.753839

-0.801586,2.528077,13.903748,16.138823,0.307953,0.042380,0.579821,7.480000,7.753839

-0.073500,6.333763,3.655458,16.127058,0.253062,-0.276575,0.134562,7.488000,7.753839

0.264198,6.546920,12.660732,16.138823,-0.463456,-0.133485,-0.109251,7.476000,7.753839

3.883072,4.125555,7.336603,16.141764,0.121696,-0.083923,-0.094063,7.488000,7.753839

0.245038,5.929005,12.610436,16.132940,-0.020062,0.280065,-0.203312,7.492000,7.753839

4.395607,0.738997,9.650192,16.144705,-0.088276,-0.062339,-0.567566,7.512000,7.753839

3.679496,10.077179,12.457155,16.138823,-0.169548,0.205988,-0.512675,7.512000,7.753839

-1.970355,-0.211825,5.535549,16.129999,0.258658,0.110861,-0.490026,7.504000,7.753839

-2.559530,6.805582,12.260764,16.129999,-0.220975,-0.109770,-0.678415,7.508000,7.753839

4.311781,-1.984140,7.030041,16.150587,-0.097869,-0.232342,-0.523334,7.512000,7.753839

2.417320,11.037581,9.518467,16.141764,0.118765,0.094341,0.197980,7.512000,7.753839

3.562140,-2.281122,12.002102,16.135881,-0.220975,-0.068202,-0.070081,7.508000,7.753839

0.204322,-2.779286,11.192585,16.129999,-0.280929,-0.268581,-0.075410,7.492000,7.753839

5.454206,0.015701,8.194020,16.127058,0.167527,0.089811,0.447922,7.496000,7.753839

1.483263,-3.387621,9.099339,16.132940,-0.395241,0.080218,0.474835,7.476000,7.753839

1.674865,2.027518,10.050160,16.129999,-0.017930,0.187869,0.425273,7.464000,7.753839

-0.562084,-4.292939,12.950529,16.127058,0.234942,0.139639,0.462311,7.468000,7.753839

-2.384694,6.642721,5.075705,16.132940,0.169393,0.309376,0.452186,7.464000,7.753839

-2.827772,2.434671,9.276569,16.135881,0.054014,0.082083,0.365852,7.460000,7.753839

-1.144074,-0.053754,9.492122,16.109411,-0.252417,-0.282704,0.230755,7.436000,7.753839

-1.062643,0.322264,13.848661,16.124117,-0.107728,0.110595,0.543049,7.448000,7.753839

-0.016019,0.449200,6.675578,16.115294,0.270915,0.129247,0.613662,7.456000,7.753839

-3.771410,8.539577,5.858876,16.115294,0.112370,0.326429,0.599806,7.456000,7.753839

-0.959657,0.853958,11.012959,16.121176,-0.499695,-0.111635,0.382372,7.452000,7.753839

1.983822,6.934913,10.454919,16.141764,0.050550,0.282463,0.701061,7.472000,15.161994

-3.129545,6.731337,7.693461,16.121176,0.054281,0.367198,0.694400,7.484000,15.161994

-3.031349,1.215606,14.092954,16.127058,-0.473581,0.200925,0.441793,7.476000,15.161994

2.994520,3.929163,7.762917,16.109411,0.232278,0.318169,0.305365,7.500000,15.161994

2.618502,8.539577,6.792934,16.118235,0.273846,0.288325,0.476967,7.504000,15.161994

-3.505563,0.501890,11.482383,16.132940,-0.182604,0.247823,0.547313,7.504000,15.161994

-0.739315,4.178246,6.476791,16.106470,0.056679,0.411964,0.410351,7.512000,15.161994

-0.018414,6.293048,7.477910,16.121176,0.134753,0.538800,0.351996,7.516000,15.161994

-0.269891,2.513707,9.738809,16.132940,-0.195927,0.510022,0.282715,7.516000,15.161994

-2.111661,1.373677,9.935200,16.115294,-0.399771,0.426086,0.290976,7.512000,15.161994

-5.711376,3.313643,13.427138,16.129999,-0.268672,0.605149,-0.348534,7.516000,15.161994

-4.978500,-1.009367,10.919553,16.115294,0.125426,0.170282,-0.742632,7.520000,15.161994

-3.282826,-2.185322,9.166399,16.129999,-0.267872,0.143903,-0.780470,7.508000,15.161994

0.424664,-6.103573,9.408296,16.135881,0.002054,0.074622,-0.745830,7.512000,15.161994

-1.481771,3.986644,11.963781,16.124117,-0.437875,0.191333,-0.852148,7.488000,15.161994

4.371656,-3.334931,11.721885,16.141764,0.326872,-0.274977,-1.113548,7.488000,15.161994

0.173187,-0.803395,5.126000,16.129999,0.112103,-0.040756,-1.094096,7.476000,15.161994

-1.682953,1.107830,11.058464,16.124117,-0.225505,-0.062073,-1.160712,7.464000,15.161994

-0.095055,1.138966,5.825346,16.124117,0.026569,-0.116431,-1.111150,7.444000,15.161994

1.013839,0.267179,10.201047,16.129999,0.145678,0.028791,-1.107952,7.444000,15.161994

-2.990633,3.771092,7.755732,16.129999,-0.020062,-0.270180,-0.913968,7.436000,15.161994

0.264198,0.877909,11.815290,16.112352,0.073200,-0.184912,-0.717052,7.452000,15.161994

-2.011071,5.521852,6.725873,16.132940,-0.076019,-0.147341,-0.683744,7.436000,15.161994

0.810262,-0.374687,13.096625,16.106470,-0.155692,-0.237672,-0.680280,7.444000,15.161994

-2.032626,4.784185,4.855363,16.141764,0.403613,-0.184379,-0.616329,7.460000,15.161994

-3.445687,4.834481,6.289979,16.127058,0.093184,-0.135350,-0.716252,7.472000,15.161994

-4.602482,5.828414,9.983100,16.124117,-0.069624,-0.301889,-0.924626,7.460000,15.161994

-0.483048,0.971314,11.080019,16.127058,0.532848,-0.475356,-0.908638,7.488000,15.161994

-1.503326,10.019698,6.728268,16.127058,0.241338,-0.593666,-0.785799,7.488000,15.161994

-2.509235,1.783226,5.104445,16.118235,0.152872,-0.326137,-0.540121,7.492000,15.161994

-3.730695,0.928204,13.884587,16.118235,0.183515,-0.609387,-0.316825,7.516000,15.161994

-0.617169,6.197247,6.620492,16.109411,0.225616,-0.468428,-0.155615,7.508000,15.161994

3.157382,7.428287,14.598303,16.109411,-0.424286,-0.636300,0.000532,7.512000,15.161994

4.196820,1.802386,8.761641,16.118235,0.109439,-0.500404,0.546513,7.516000,15.788226

-2.959498,4.329132,7.367738,16.124117,-0.244157,-0.201433,0.414614,7.512000,15.788226

3.468734,-1.495556,6.261240,16.106470,0.006318,0.030123,0.572893,7.520000,15.788226

2.230509,1.835916,12.035632,16.106470,-0.332889,-0.061007,0.581153,7.516000,15.788226

2.711908,5.387731,9.312495,16.100588,0.283439,0.016800,0.615527,7.512000,15.788226

5.109323,-9.918839,13.649876,16.106470,-0.490368,-0.349320,0.332011,7.504000,15.788226

-1.168024,-1.749428,4.472160,16.109411,-0.567110,0.175079,0.211570,7.488000,15.788226

-0.186066,4.144715,10.222602,16.103529,0.299959,0.172947,0.510274,7.480000,15.788226

-0.914152,0.925809,11.211745,16.100588,-0.298249,0.120720,0.656562,7.460000,15.788226

0.918038,-4.810263,10.498030,16.100588,0.113169,0.301115,0.422875,7.480000,15.788226

-0.938102,4.626114,4.608676,16.121176,0.062008,0.413829,0.295772,7.468000,15.788226

0.654586,4.144715,12.569721,16.109411,-0.231367,0.219844,0.284314,7.460000,15.788226

3.868702,-0.008249,9.745994,16.141764,0.164063,0.428484,0.255803,7.472000,15.788226

-7.129227,4.171061,5.382267,16.129999,0.127292,0.613409,0.168936,7.464000,15.788226

-2.348768,11.236368,8.565248,16.109411,-0.102399,0.044246,-0.142026,7.456000,15.788226

1.516793,0.566556,8.203601,16.100588,-0.239094,-0.057810,-0.342939,7.480000,15.788226

-1.709298,2.029913,8.560458,16.106470,0.153671,0.121520,-0.391968,7.496000,15.788226

-1.750014,9.325143,9.734018,16.103529,-0.307575,0.134310,-0.354929,7.496000,15.788226

-0.250731,3.941139,11.029724,16.106470,-0.039514,0.039716,-0.421012,7.496000,15.788226

0.252223,0.904254,6.239684,16.106470,-0.254816,-0.069001,-0.403426,7.496000,15.788226

-0.471073,8.003092,12.045212,16.097647,0.178186,-0.002652,-0.461248,7.512000,15.788226

-1.400341,6.824742,6.843229,16.118235,0.464100,0.001345,-0.202779,7.524000,15.788226

-10.530155,1.407208,5.231381,16.121176,-0.505823,0.082616,0.111646,7.520000,15.788226

3.293898,8.307260,8.433522,16.079998,0.086256,-0.180915,-0.033842,7.524000,15.788226

1.212626,-1.275214,17.180134,16.109411,-0.590825,-0.747681,0.469772,7.528000,15.788226

-4.224069,6.784027,3.504572,16.094706,1.035396,0.497765,0.540385,7.528000,15.788226

-8.130345,-2.614030,7.935358,16.085880,-0.315036,-0.869987,0.031708,7.540000,15.788226

-5.124596,-4.498910,15.889218,16.088821,-0.760828,-0.397549,0.641907,7.528000,15.788226

2.225719,2.841825,6.797724,16.094706,0.757209,-0.036226,0.602470,7.532000,15.788226

-3.716325,1.550909,7.712621,16.097647,-0.013933,-0.406609,0.585150,7.532000,15.788226

-5.835917,-5.533559,8.881392,16.088821,-0.190865,-0.456171,0.781533,7.524000,15.788226

5.954764,4.997342,5.576264,16.094706,0.203766,-0.292297,0.674149,7.520000,16.758174

1.253341,-4.280963,16.346666,16.091763,-0.105330,-0.398615,0.439129,7.516000,16.758174

-0.650700,2.753209,14.495317,16.085880,0.058011,-0.252061,0.267527,7.500000,16.758174

5.173988,-1.900314,9.008327,16.103529,0.242936,-0.028232,0.270725,7.508000,16.758174

1.234181,0.020492,3.535707,16.094706,0.001255,-0.045019,0.189453,7.500000,16.758174

1.557508,2.714888,9.116103,16.074116,0.001521,-0.212624,0.232087,7.496000,16.758174

2.898720,5.191339,14.243840,16.094706,-0.133042,0.055970,0.272323,7.500000,16.758174

1.382672,4.345897,6.816884,16.091763,0.333534,0.159357,0.344268,7.500000,16.758174

-0.890202,11.923738,8.684999,16.103529,0.148875,0.344282,0.399159,7.520000,16.758174

2.132313,-0.616584,4.953559,16.091763,-0.129845,-0.024768,0.337340,7.512000,16.758174

-4.118688,6.903778,13.649876,16.115294,-0.324629,0.564913,0.225426,7.528000,16.758174

0.194742,3.373519,5.875641,16.094706,0.377766,0.259814,-0.152951,7.528000,16.758174

-7.469320,1.203631,9.535232,16.112352,-0.507955,0.074889,-0.373848,7.528000,16.758174

-0.030389,6.669066,13.525334,16.100588,0.370039,0.029590,-0.447392,7.540000,16.758174

-4.758158,4.264466,8.380832,16.103529,-0.171679,-0.264318,-0.510277,7.532000,16.758174

3.981268,2.065838,9.741203,16.094706,0.204832,-0.128422,0.255803,7.524000,16.758174

5.293739,-4.362394,8.843071,16.109411,-0.082414,-0.224882,0.306164,7.528000,16.758174

-1.179999,3.294483,11.293176,16.115294,-0.409364,0.406368,0.537187,7.524000,16.758174

5.842198,6.815162,4.567961,16.106470,0.759341,0.416494,0.503080,7.524000,16.758174

-0.938102,-2.372133,8.684999,16.106470,-0.808525,-0.074597,0.315757,7.524000,16.758174

-0.705785,5.454791,13.055910,16.115294,0.095316,0.712800,0.251273,7.516000,16.758174

4.912931,-2.623610,12.289504,16.097647,0.129423,0.154827,0.019450,7.516000,16.758174

-0.394432,4.264466,12.275134,16.112352,0.053482,0.573174,-0.239018,7.524000,16.758174

-0.080685,4.961417,1.468805,16.115294,0.295696,0.427419,-0.629386,7.520000,16.758174

-1.620682,1.174891,9.559182,16.103529,-0.474114,0.169483,-0.849750,7.516000,16.758174

1.612594,-1.797328,10.967453,16.097647,0.087855,0.498298,-0.839358,7.516000,16.758174

-2.049391,3.062166,7.925778,16.091763,0.202168,0.162022,-0.959799,7.520000,16.758174

-5.479059,6.266703,4.692502,16.103529,-0.058699,0.172947,-0.931288,7.520000,16.758174

2.350260,-1.215339,6.682763,16.097647,-0.179140,-0.317877,-0.717052,7.520000,16.758174

-2.164352,-0.580658,17.079544,16.091763,-0.240693,-0.048217,-0.331214,7.512000,17.352246

-3.115175,7.004369,8.615544,16.115294,0.213892,0.216647,-0.043701,7.528000,17.352246

-3.079249,0.288734,9.003537,16.112352,0.031099,-0.248064,0.134829,7.520000,17.352246

-2.617011,3.505245,6.045688,16.112352,0.020973,-0.229411,0.370648,7.528000,17.352246

-3.749855,5.045243,11.511123,16.094706,-0.410696,-0.300557,0.438329,7.516000,17.352246

-1.896110,1.047955,7.901828,16.115294,0.320210,-0.092716,0.390633,7.524000,17.352246

-2.485285,-3.584013,5.092470,16.091763,0.223485,-0.231010,0.406354,7.528000,17.352246

1.200651,-3.143329,4.350014,16.106470,0.289301,-0.445513,0.490823,7.536000,17.352246

-5.934113,2.858590,11.623689,16.103529,-0.564978,-0.088453,0.582752,7.536000,17.352246

1.215021,5.320670,8.361671,16.091763,0.411074,-0.058076,0.499882,7.536000,17.352246

-0.892597,-2.743361,12.057187,16.106470,-0.155425,-0.394618,0.271790,7.528000,17.352246

-2.652936,5.224869,10.229787,16.097647,0.058544,-0.055678,0.292841,7.532000,17.352246

-0.765660,1.934112,7.061176,16.124117,0.328471,-0.178784,0.195849,7.528000,17.352246

-0.293842,1.019215,4.211103,16.109411,-0.296650,-0.370637,0.266461,7.524000,17.352246

-1.323700,-2.817607,14.780324,16.115294,-0.365664,-0.251528,0.327481,7.520000,17.352246

-0.099845,2.154454,14.116904,16.106470,0.675139,-0.212624,0.291242,7.520000,17.352246

0.230668,-1.294374,7.532995,16.088821,-0.163419,-0.619246,0.430869,7.528000,17.352246

-0.128585,2.185589,10.454919,16.106470,0.028701,-0.158266,0.680277,7.508000,17.352246

1.234181,1.349727,13.932487,16.103529,0.152872,-0.115099,0.854544,7.516000,17.352246

1.550323,6.156532,5.662485,16.106470,0.491546,-0.179050,0.865469,7.516000,17.352246

-1.282985,0.758158,7.779682,16.112352,-0.394175,0.065030,0.721846,7.512000,17.352246

-0.071105,0.798873,11.547048,16.118235,0.039359,0.176944,0.686140,7.520000,17.352246

0.228273,6.180482,11.197375,16.112352,-0.067226,0.219045,0.678146,7.512000,17.352246

1.713185,1.505404,7.185717,16.106470,0.193108,0.180408,0.592078,7.516000,17.352246

1.361117,3.938743,9.451406,16.109411,0.266119,0.568111,0.476700,7.512000,17.352246

0.724042,-0.638139,6.965375,16.115294,-0.298249,0.115125,0.125236,7.512000,17.352246

-0.657885,5.517062,7.528205,16.100588,0.029766,0.440742,0.039968,7.520000,17.352246

1.849701,-6.675983,15.848503,16.094706,-0.624932,0.309909,-0.124173,7.520000,17.352246

0.542020,11.574066,7.422824,16.100588,0.549368,0.722659,-0.092730,7.520000,17.352246

-0.880621,-5.986217,8.526928,16.118235,-0.450665,0.367198,-0.127370,7.516000,17.352246

1.773060,6.652301,5.226591,16.115294,0.143013,0.256350,0.058354,7.512000,17.352246

-0.427963,-3.722924,10.981823,16.097647,-0.574304,0.462059,0.027178,7.508000,17.177621

2.146683,9.394598,10.373488,16.103529,-0.040313,0.371728,0.010124,7.504000,17.177621

3.554955,6.338553,6.019342,16.115294,0.865393,0.450601,0.031175,7.512000,17.177621

0.173187,-4.834213,6.237289,16.103529,-0.644917,0.122053,-0.115646,7.516000,17.177621

-1.036298,6.096656,11.594949,16.103529,0.159534,0.879872,-0.051162,7.512000,17.177621

0.865348,-0.918356,9.463381,16.112352,-0.158889,0.336555,-0.197716,7.508000,17.177621

0.733622,3.759117,6.246870,16.085880,0.153139,0.360270,-0.249943,7.508000,17.177621

-0.090265,1.467083,6.194179,16.100588,-0.114390,0.448203,-0.459649,7.504000,17.177621

-0.138165,-2.999628,6.675578,16.088821,-0.206586,0.358938,-0.749027,7.512000,17.177621

-1.876950,12.874561,13.601974,16.094706,0.194707,0.734650,-0.956868,7.508000,17.177621

8.713826,-8.163290,7.909013,16.094706,-0.428549,-0.115898,-1.039738,7.512000,17.177621

-5.886212,8.122843,6.936635,16.097647,0.284771,0.930766,-1.142059,7.508000,17.177621

3.598065,-1.366225,9.496911,16.097647,-0.472249,0.095406,-1.425309,7.504000,17.177621

-2.576295,2.065838,14.025893,16.106470,-0.140503,0.452999,-1.433569,7.512000,17.177621

-0.784821,8.479701,6.448051,16.109411,0.328737,0.434613,-1.495389,7.500000,17.177621

-1.836234,3.773487,9.918435,16.112352,-0.089609,-0.060208,-1.566268,7.504000,17.177621

0.680931,-2.379318,13.767231,16.103529,0.194174,0.087679,-1.530562,7.508000,17.177621

-4.995265,-1.145883,13.733701,16.118235,0.127825,0.238497,-1.464479,7.512000,17.177621

-4.516261,8.098892,2.160966,16.103529,0.389224,0.110328,-1.256905,7.532000,17.177621

-3.184630,4.357872,4.512875,16.103529,-0.239094,-0.268848,-1.201747,7.512000,17.177621

3.514239,-2.324233,16.262840,16.106470,0.021506,-0.152404,-1.012292,7.516000,17.177621

-3.606153,3.342384,10.478869,16.109411,0.577080,-0.113767,-0.977386,7.528000,17.177621

-4.968920,-0.001064,7.873087,16.115294,0.376434,-0.481485,-0.911303,7.532000,17.177621

-2.918783,-0.084889,3.399191,16.112352,0.162731,-0.194771,-0.682412,7.536000,17.177621

-2.535580,3.323223,9.595107,16.141764,-0.133842,-0.358113,-0.442063,7.520000,17.177621

-1.857789,1.495824,13.779206,16.124117,0.154204,-0.417800,-0.197716,7.528000,17.177621

-4.839589,4.573424,8.205996,16.118235,0.803041,-0.198768,-0.157481,7.528000,17.177621

-2.827772,-3.751664,4.658971,16.109411,0.299426,-0.779923,0.008525,7.524000,17.177621

-5.416789,6.585240,8.457473,16.103529,0.511797,-0.213157,0.391965,7.540000,17.177621

-4.525841,-2.946938,3.042333,16.124117,0.157402,-0.920349,0.342137,7.520000,17.177621

-3.627709,2.073023,14.406701,16.118235,0.015377,-0.584872,0.497484,7.528000,17.177621

-4.300709,6.185272,7.104286,16.103529,0.681800,-0.261120,0.644571,7.528000,16.634748

-0.164511,-4.491725,8.083850,16.115294,-0.440540,-0.989629,0.730905,7.512000,16.634748

0.333654,10.189745,8.493398,16.121176,0.846474,-0.096447,1.174032,7.504000,16.634748

0.149237,-3.962426,13.491804,16.121176,-0.486105,-0.717038,1.047463,7.496000,16.634748

-0.415988,5.347015,7.726991,16.109411,0.314615,-0.389555,1.293408,7.504000,16.634748

-3.946246,0.300709,11.341076,16.100588,-0.088809,-0.328802,1.128734,7.480000,16.634748

-2.492470,1.979617,12.339800,16.106470,0.168593,-0.033295,1.231588,7.484000,16.634748

1.686840,4.072865,5.947492,16.112352,-0.057100,-0.365840,1.204676,7.496000,16.634748

-0.205226,3.584280,6.165439,16.121176,-0.023260,-0.108704,1.217199,7.484000,16.634748

1.358722,1.244346,7.396479,16.103529,-0.202589,-0.164395,1.169236,7.496000,16.634748

0.759967,2.470596,13.654665,16.112352,-0.219642,0.242494,1.272890,7.512000,16.634748

0.235458,4.036940,9.149633,16.118235,0.529916,0.355207,0.868133,7.508000,16.634748

1.507213,1.711375,10.033396,16.109411,-0.040846,-0.089519,0.591545,7.516000,16.634748

-0.281867,3.066956,8.026369,16.109411,0.188578,-0.033295,0.404755,7.516000,16.634748

0.039066,3.663316,5.085285,16.115294,-0.113590,0.178543,0.263530,7.516000,16.634748

5.085372,4.403378,8.816726,16.115294,0.289301,0.083682,0.216366,7.512000,16.634748

-1.742828,-7.255578,12.102693,16.106470,-0.413894,0.268607,0.159610,7.516000,16.634748

-2.712811,5.945770,10.780642,16.115294,0.258391,0.637391,0.090063,7.516000,16.634748

1.904786,2.769974,4.158412,16.106470,0.326606,0.217446,-0.015989,7.520000,16.634748

0.149237,-0.360317,9.360395,16.129999,-0.522610,0.242760,-0.032776,7.524000,16.634748

2.376605,9.715530,1.540656,16.112352,0.562691,0.479379,-0.041569,7.516000,16.634748

-0.147745,-8.656664,16.054474,16.115294,-0.737113,0.231036,-0.057291,7.508000,16.634748

1.694025,7.861786,11.788945,16.121176,0.836082,0.732252,-0.047698,7.508000,16.634748

1.363512,-7.198097,15.891613,16.115294,-0.729918,-0.047684,-0.197450,7.500000,16.634748

1.107245,10.529838,10.727951,16.103529,0.955191,0.673097,-0.223830,7.508000,16.634748

3.823197,-3.088244,7.271938,16.115294,-0.041912,0.127115,-0.746896,7.496000,16.634748

-3.855236,4.817716,10.859677,16.103529,0.016976,0.341351,-0.911569,7.492000,16.634748

-2.444569,2.171219,4.486530,16.115294,0.027102,0.219844,-0.673086,7.496000,16.634748

-2.375113,4.274046,4.644601,16.106470,-0.114656,0.141504,-0.557441,7.484000,16.634748

-2.430199,-1.263239,8.878996,16.109411,-0.238561,0.201991,-0.425808,7.484000,16.634748

-3.687584,-3.320561,14.351616,16.094706,0.173923,0.301648,-0.416216,7.500000,16.634748

-1.275800,7.351646,11.774575,16.115294,-0.160488,0.054105,-0.345870,7.496000,16.634748

0.206717,5.176969,6.208549,16.135881,0.243203,0.008007,-0.093796,7.492000,16.634748

-0.801586,3.979459,5.734335,16.121176,0.069736,0.108729,0.174265,7.500000,15.670931

-1.390761,7.734850,8.306586,16.127058,0.173390,-0.058342,0.308829,7.504000,15.670931

0.534835,5.073983,12.112272,16.124117,0.021506,0.015201,0.293107,7.512000,15.670931

-1.086593,6.609190,7.755732,16.129999,0.422799,-0.066070,0.058354,7.512000,15.670931

-3.043324,-2.178136,10.521979,16.097647,-0.553786,-0.322673,0.060219,7.512000,15.670931

-0.562084,4.896751,7.614426,16.121176,0.218155,0.093541,0.075141,7.508000,15.670931

-4.513866,5.143438,6.278005,16.109411,0.095316,0.115391,-0.361058,7.528000,15.670931

-0.090265,1.026400,11.125525,16.115294,-0.096270,-0.284569,-0.478302,7.516000,15.670931

-0.466283,0.856353,9.149633,16.109411,-0.453597,-0.070333,-0.468709,7.516000,15.670931

2.134708,-2.372133,12.600857,16.112352,-0.038981,0.170282,-0.358660,7.512000,15.670931

-2.945128,0.463570,13.599580,16.106470,0.017509,-0.002918,-0.640044,7.508000,15.670931

-2.032626,-1.651232,6.910290,16.141764,0.455573,-0.061540,-0.660029,7.512000,15.670931

-5.792807,2.020333,3.789579,16.121176,-0.507955,-0.062073,-0.772476,7.492000,15.670931

4.409977,-2.027250,11.786550,16.109411,0.350054,-0.217954,-0.502550,7.500000,15.670931

-4.444410,-0.820160,8.347301,16.103529,-0.380852,-0.311748,-0.540920,7.492000,15.670931

2.187399,4.956627,8.100615,16.127058,0.176587,-0.143610,-0.440464,7.496000,15.670931

3.521425,0.825218,7.556945,16.127058,0.113169,-0.384493,-0.271527,7.484000,15.670931

-0.686625,2.793924,10.854887,16.121176,0.090253,-0.148940,0.049028,7.484000,15.670931

-1.857789,1.043165,7.089916,16.109411,0.419601,-0.002652,0.161475,7.484000,15.670931

-3.402577,1.962852,9.930409,16.121176,-0.355272,-0.403944,0.157744,7.492000,15.670931

-1.098568,8.055782,11.901511,16.118235,0.099313,0.022129,0.302700,7.492000,15.670931

4.618343,-0.063334,5.523573,16.109411,0.296495,-0.227280,0.321352,7.504000,15.670931

-5.867052,5.888289,9.295730,16.121176,-0.223107,-0.021837,0.345601,7.508000,15.670931

-0.095055,1.488638,8.423943,16.121176,0.141148,-0.300024,0.312559,7.508000,15.670931

1.083295,1.644315,11.178215,16.121176,-0.308108,-0.098845,0.430869,7.516000,15.670931

0.702486,6.149347,8.986773,16.127058,0.407077,0.128448,0.369049,7.516000,15.670931

-2.298473,-3.725319,7.197692,16.127058,-0.157557,0.027991,0.327747,7.520000,15.670931

-1.579967,9.370648,11.458432,16.124117,-0.217244,-0.066603,0.279518,7.516000,15.670931

2.604132,2.724468,6.642047,16.121176,0.406544,-0.207029,0.272323,7.508000,15.670931

-0.971632,-0.774655,7.386899,16.112352,-0.432546,-0.141745,0.419411,7.508000,15.670931

-0.964447,1.311407,12.306270,16.112352,0.317013,0.154827,0.495619,7.508000,15.670931

-1.424291,-1.723083,9.441826,16.109411,-0.513018,-0.134817,0.412483,7.508000,15.670931

-1.855394,0.853958,6.349855,16.121176,-0.150629,-0.122027,0.310960,7.492000,15.832293

4.112994,-0.487253,9.417875,16.097647,0.219488,-0.236339,0.458048,7.496000,15.832293

0.051041,-0.453722,12.799644,16.118235,-0.401370,0.248356,0.510807,7.492000,15.832293

2.999310,6.194852,8.737690,16.118235,0.198704,0.230236,0.495352,7.492000,15.832293

0.393529,-1.799723,7.267148,16.115294,0.194973,0.143370,0.432467,7.496000,15.832293

-2.293683,-0.700409,8.953242,16.100588,-0.140770,0.109529,0.509209,7.492000,15.832293

-4.125873,2.058653,8.680209,16.106470,-0.126647,0.255817,0.390899,7.496000,15.832293

-0.442333,-1.519506,11.096785,16.127058,-0.288123,0.064763,0.259267,7.484000,15.832293

0.249828,6.633141,10.203442,16.129999,-0.000877,0.347480,0.308829,7.500000,15.832293

1.940712,-0.106445,7.767707,16.127058,-0.036583,0.063964,0.165738,7.484000,15.832293

0.673746,1.605994,13.137341,16.109411,-0.426684,0.258215,0.042633,7.492000,15.832293

1.179096,3.373519,11.027328,16.129999,0.259723,0.267275,0.078605,7.496000,15.832293

-2.614615,4.856036,9.904064,16.112352,0.174722,0.417560,-0.287514,7.492000,15.832293

-0.772846,3.742352,4.132067,16.118235,-0.026191,0.181474,-0.529462,7.492000,15.832293

0.257013,4.400982,9.619058,16.124117,-0.129845,0.127915,-0.356795,7.488000,15.832293

0.805472,1.253927,10.371094,16.109411,-0.076552,0.094074,-0.314161,7.492000,15.832293

1.571879,6.022410,9.614267,16.118235,0.304489,0.349612,-0.250476,7.496000,15.832293

-5.699400,3.198682,6.103168,16.112352,-0.453863,0.191866,-0.265664,7.504000,15.832293

0.771942,2.750814,7.916198,16.118235,0.535512,0.095140,-0.374381,7.508000,15.832293

-5.943693,-0.417797,15.362314,16.127058,-0.654243,-0.057810,-0.335478,7.492000,15.832293

0.951569,9.794566,8.541298,16.129999,0.567221,0.655244,-0.231024,7.520000,15.832293

-4.966525,-1.574591,4.987089,16.118235,-0.369927,-0.308284,-0.490026,7.512000,15.832293

-3.201395,5.406890,8.950847,16.115294,0.018042,0.184938,-0.366920,7.508000,15.832293

1.981427,-4.518070,13.515754,16.106470,-0.129312,-0.494275,-0.231024,7.512000,15.832293

-1.726063,7.943216,10.416599,16.100588,0.263987,0.293654,-0.156148,7.512000,15.832293

-2.909203,-3.931291,10.677656,16.124117,0.132887,-0.499871,-0.527064,7.504000,15.832293

-4.576137,4.094420,8.819120,16.115294,-0.033119,0.015734,-0.354929,7.504000,15.832293

1.145565,-1.531481,9.693303,16.121176,-0.040047,-0.450042,-0.332547,7.504000,15.832293

-0.080685,8.927569,12.157778,16.132940,0.061475,0.023461,-0.147355,7.500000,15.832293

1.021024,-4.767152,12.859519,16.118235,0.155537,-0.381561,-0.132966,7.508000,15.832293

-1.860184,4.839271,8.186835,16.124117,0.031365,-0.211558,-0.092730,7.504000,15.832293

-1.843419,-0.848901,6.603727,16.124117,0.248532,-0.324006,-0.057824,7.508000,15.832293

-1.824259,0.959339,9.803473,16.109411,-0.146099,-0.289632,0.285646,7.504000,15.832293

1.121615,2.712493,8.088639,16.100588,0.024704,-0.278441,0.456715,7.488000,15.832293

-0.803981,3.864498,9.566367,16.094706,-0.086678,-0.154003,0.540651,7.496000,15.405927

1.085690,-1.948215,11.958991,16.109411,0.109172,-0.259788,0.532657,7.500000,15.405927

-1.335675,9.770617,8.538903,16.112352,0.402814,0.164687,0.427937,7.508000,15.405927

-3.105594,-2.273937,7.362948,16.109411,-0.302246,-0.203831,0.318155,7.500000,15.405927

0.424664,7.689344,10.974638,16.109411,0.022572,-0.043687,0.361588,7.504000,15.405927

0.992284,2.456226,8.009604,16.121176,-0.015266,-0.072998,0.236884,7.496000,15.405927

1.715580,4.772211,10.359118,16.115294,0.145944,0.094074,0.110048,7.504000,15.405927

-0.490233,0.348609,11.381792,16.135881,-0.055768,0.128714,-0.080739,7.508000,15.405927

0.870138,6.954073,6.184599,16.121176,-0.178607,0.010405,-0.197716,7.520000,15.405927

3.399279,2.963970,7.741362,16.106470,0.198437,-0.060474,-0.214770,7.520000,15.405927

0.618661,0.065997,9.827424,16.109411,-0.598019,0.257682,-0.043435,7.512000,15.405927

3.298688,3.371124,7.595265,16.118235,0.378299,0.333890,-0.001600,7.512000,15.405927

0.455800,4.218961,10.483660,16.127058,-0.270537,0.100203,-0.074078,7.508000,15.405927

4.165685,1.062325,8.239526,16.115294,-0.051238,0.170282,0.057022,7.508000,15.405927

1.021024,3.035821,8.759245,16.115294,0.303423,0.237431,-0.027181,7.500000,15.405927

-2.585875,-2.420033,10.155541,16.106470,-0.263076,0.094607,-0.010660,7.496000,15.405927

1.238971,9.341908,8.057505,16.100588,0.310884,0.070892,-0.070081,7.508000,15.405927

-1.158444,-2.717016,7.255173,16.118235,-0.072289,0.049575,0.007193,7.512000,15.405927

-2.719996,7.162440,12.138618,16.103529,-0.252950,0.324031,-0.026914,7.504000,15.405927

3.789667,-0.446537,6.210944,16.124117,0.487549,-0.039424,-0.034109,7.504000,15.405927

-2.176327,0.243228,12.229629,16.112352,-0.283327,0.235033,0.058087,7.508000,15.405927

2.206559,-0.506413,6.598937,16.109411,0.073999,0.163621,0.038902,7.500000,15.405927

-1.659003,8.853324,9.108918,16.106470,0.057478,0.532671,-0.138029,7.496000,15.405927

3.109481,-0.829740,9.853769,16.118235,-0.045376,-0.084722,-0.335744,7.504000,15.405927

-0.995582,8.247384,7.183322,16.106470,0.124361,0.380521,-0.287781,7.488000,15.405927

-0.995582,-6.788549,10.421389,16.118235,-0.176476,-0.171589,-0.497753,7.500000,15.405927

-5.277877,2.008358,11.918276,16.112352,-0.325695,0.178276,-0.632850,7.484000,15.405927

0.403109,1.376073,8.934082,16.127058,-0.075486,0.025327,-0.621392,7.488000,15.405927

0.134867,7.265426,11.645244,16.135881,0.463034,0.175345,-0.766081,7.492000,15.405927

-4.049232,-0.228591,9.401111,16.112352,-0.227103,-0.257390,-0.807383,7.484000,15.405927

-2.751132,7.275006,6.016947,16.109411,0.623178,0.082083,-0.620859,7.508000,15.405927

-5.081486,-0.616584,8.009604,16.109411,-0.516482,-0.347721,-0.436200,7.492000,15.405927

0.874928,5.603282,8.313771,16.106470,0.267451,0.021596,-0.026648,7.500000,15.405927

-4.897069,0.298314,8.100615,16.121176,-0.232433,-0.191307,0.002397,7.500000,15.643618

-3.745065,-1.268029,14.253420,16.100588,-0.225505,-0.053280,0.294173,7.504000,15.643618

2.664008,6.355319,9.051437,16.109411,-0.036849,-0.281905,0.361855,7.504000,15.643618

-1.175209,5.143438,9.844189,16.112352,0.165662,-0.131087,0.493754,7.504000,15.643618

-2.490075,2.971155,9.650192,16.103529,0.157135,-0.311215,0.731438,7.508000,15.643618

-4.236044,-4.120497,6.258844,16.112352,-0.008604,-0.316278,0.726109,7.492000,15.643618

-6.434672,4.772211,8.450288,16.106470,0.008982,0.019465,0.723977,7.492000,15.643618

0.829423,-0.765075,6.210944,16.109411,-0.175143,-0.719169,0.528127,7.500000,15.643618

-0.126190,-1.035712,12.167358,16.112352,-0.244424,-0.228612,0.566764,7.488000,15.643618

-0.461493,-0.475278,10.500424,16.115294,0.040691,0.137774,0.544382,7.508000,15.643618

-0.154930,5.011713,11.623689,16.121176,-0.200724,0.075422,0.345601,7.508000,15.643618

1.562299,7.222315,11.032119,16.121176,0.442783,-0.038624,0.144954,7.512000,15.643618

2.067648,1.613179,8.761641,16.118235,0.042024,-0.163329,0.066881,7.512000,15.643618

2.889139,1.685030,8.699369,16.097647,0.441717,-0.182248,-0.120176,7.504000,15.643618

-0.406408,-2.187716,10.989009,16.106470,-0.283594,-0.094048,-0.119110,7.496000,15.643618

3.593275,8.118052,6.654023,16.115294,0.394820,-0.041555,-0.154283,7.496000,15.643618

-0.054340,-2.077546,11.475198,16.129999,-0.481842,-0.236339,-0.157747,7.488000,15.643618

1.749110,1.843101,8.704160,16.115294,0.217622,-0.108970,-0.009328,7.480000,15.643618

-0.514183,1.033585,11.915881,16.103529,-0.355538,0.029857,0.001065,7.480000,15.643618

-2.521210,5.730218,9.456196,16.112352,0.197638,0.090876,0.063150,7.484000,15.643618

1.088085,4.642879,8.265871,16.112352,-0.087477,-0.086321,-0.016788,7.492000,15.643618

0.812657,1.162916,9.798684,16.115294,0.054014,-0.162796,0.076207,7.484000,15.643618

2.089203,3.589071,11.020144,16.135881,-0.181272,-0.044220,0.080470,7.492000,15.643618

-0.413593,2.187984,4.486530,16.109411,0.254128,0.149498,0.114045,7.488000,15.643618

-3.048114,-2.820002,10.184282,16.121176,-1.084047,-0.040223,-0.016522,7.488000,15.643618

2.247274,5.155414,8.337722,16.127058,0.306887,0.196662,-0.116179,7.496000,15.643618

0.257013,-0.391452,6.287585,16.115294,-0.226038,0.206255,-0.143358,7.500000,15.643618

0.793497,6.513390,14.380356,16.118235,0.042557,0.160956,-0.042102,7.512000,15.643618

1.741925,-1.907499,6.189389,16.115294,-0.117854,-0.018906,-0.059156,7.508000,15.643618

-0.964447,5.078773,15.070122,16.106470,0.049218,0.273137,-0.120709,7.512000,15.643618

-2.229017,4.451278,10.418994,16.124117,0.048685,0.191599,-0.188923,7.508000,15.643618

1.047369,3.965089,7.166557,16.106470,0.657286,-0.273644,-0.230491,7.508000,15.643618

-1.148864,-3.265475,7.461144,16.129999,-0.270004,-0.237139,-0.065818,7.496000,15.643618

0.525255,5.998460,12.952925,16.106470,0.322609,0.014668,-0.070347,7.500000,15.352596

2.309545,-4.082177,7.109076,16.103529,0.142480,-0.090584,0.028244,7.504000,15.352596

-4.616852,5.344620,4.508085,16.118235,0.183782,0.191066,-0.009860,7.500000,15.352596

-1.292565,-0.923146,11.848821,16.112352,-0.331823,-0.024235,-0.022118,7.500000,15.352596

0.376764,1.246742,9.791499,16.115294,0.185647,0.102867,-0.035441,7.500000,15.352596

-2.173932,0.054022,10.584250,16.115294,-0.106929,0.129514,-0.195318,7.504000,15.352596

-0.083080,1.548514,9.056228,16.118235,0.085457,-0.134018,-0.120975,7.484000,15.352596

-0.911757,2.928045,8.919712,16.106470,0.048685,0.064497,-0.150553,7.492000,15.352596

-1.211134,-0.075309,6.948610,16.115294,0.005252,0.045578,-0.037306,7.492000,15.352596

-2.018256,1.900582,7.413244,16.129999,0.080128,0.111927,0.235285,7.488000,15.352596

-1.924850,-3.112194,7.758127,16.132940,-0.000877,-0.242735,0.184657,7.480000,15.352596

-2.561925,2.252650,7.796447,16.118235,0.023105,-0.058342,0.446057,7.492000,15.352596

-2.736762,1.115016,11.271621,16.109411,-0.183670,-0.270180,0.584351,7.480000,15.352596

-3.141520,5.358990,13.642690,16.121176,0.104642,0.014135,0.597408,7.476000,15.352596

1.581459,0.935389,3.375241,16.115294,0.396685,-0.202232,0.414614,7.488000,15.352596

-3.316356,8.288099,9.975915,16.106470,-0.099201,-0.253659,0.484161,7.484000,15.352596

1.353932,-0.827345,7.832372,16.112352,-0.290522,-0.149206,0.742630,7.500000,15.352596

-2.327213,6.805582,11.254856,16.121176,0.027368,0.324564,0.903040,7.508000,15.352596

0.702486,3.241793,9.362790,16.112352,-0.127979,-0.186511,0.953401,7.512000,15.352596

-1.512907,10.874721,12.763718,16.112352,0.061742,0.170815,0.796988,7.512000,15.352596

4.220770,3.284903,9.274175,16.109411,0.259457,-0.282437,0.630715,7.508000,15.352596

4.268671,-3.138539,11.149475,16.115294,-0.018730,-0.187310,0.673349,7.524000,15.352596

-4.415670,8.518021,5.923542,16.121176,0.112103,0.592092,0.633913,7.520000,15.352596

0.973124,2.609508,7.377318,16.112352,0.040158,-0.026633,0.710388,7.528000,15.352596

-3.828890,-1.720688,13.527729,16.100588,-0.512485,0.084748,0.787662,7.520000,15.352596

-0.315397,7.859390,11.901511,16.118235,0.708713,0.524944,0.456182,7.540000,15.352596

-4.245624,-2.422428,5.231381,16.132940,0.135552,-0.322673,0.227025,7.532000,15.352596

-2.813402,3.157967,8.189230,16.118235,-0.108261,0.174812,0.223561,7.536000,15.352596

0.065411,6.894198,10.167517,16.112352,-0.541529,0.158824,0.027444,7.532000,15.352596

5.988295,-4.132473,10.957873,16.118235,0.379099,-0.403411,0.141224,7.528000,15.352596

1.044974,0.147428,10.785432,16.129999,0.196305,0.182007,0.255003,7.528000,15.352596

3.090321,0.339029,6.869575,16.100588,0.486217,0.018132,0.423408,7.520000,15.352596

0.982704,0.758158,7.626400,16.121176,-0.416825,0.069293,0.622721,7.508000,15.352596

2.070043,4.810531,12.145802,16.124117,0.227215,0.387183,0.702394,7.500000,16.052771

2.769388,0.880304,11.082415,16.115294,0.184048,0.105532,0.476967,7.504000,16.052771

1.222206,7.615099,7.952123,16.118235,-0.055235,0.203324,0.301901,7.504000,16.052771

0.115707,3.050191,8.378437,16.118235,0.021240,0.300316,0.242213,7.496000,16.052771

1.064134,-0.683644,13.278647,16.118235,-0.125315,0.138573,0.038369,7.500000,16.052771

-1.951195,5.991275,6.507926,16.127058,-0.056834,0.538800,-0.106586,7.512000,16.052771

3.775297,4.796161,8.364067,16.121176,0.047086,0.443406,-0.446060,7.520000,16.052771

-0.116610,-2.645165,10.217813,16.118235,-0.063762,0.364533,-0.983248,7.524000,16.052771

1.540743,7.926451,7.592870,16.115294,0.011380,0.511088,-1.289147,7.528000,16.052771

1.183886,1.898187,6.316325,16.121176,-0.152494,0.383719,-1.462348,7.516000,16.052771

-0.459098,-2.970888,14.799484,16.115294,-0.255348,0.420757,-1.548948,7.524000,16.052771

4.512963,10.038858,12.663127,16.109411,0.340728,0.318968,-1.721882,7.528000,16.052771

2.788548,0.377349,2.695055,16.106470,0.240272,-0.022370,-1.707226,7.532000,16.052771

-0.959657,-0.415402,14.277370,16.109411,-0.529005,0.135376,-1.497787,7.524000,16.052771

2.690353,7.504928,15.237773,16.121176,0.636768,0.230769,-1.533493,7.528000,16.052771

4.745279,-0.326786,4.884103,16.112352,0.077730,-0.018640,-1.435701,7.524000,16.052771

-1.697323,0.403695,12.785274,16.112352,-0.136773,0.212916,-1.294210,7.520000,16.052771

-4.298315,1.895792,8.718530,16.112352,0.586939,0.460194,-1.220666,7.536000,16.052771

-4.032467,-1.526691,7.449169,16.106470,-0.319566,-0.382894,-1.134066,7.512000,16.052771

0.549205,3.148387,11.422507,16.112352,0.339929,0.110861,-0.781269,7.524000,16.052771

-0.090265,3.251373,2.364543,16.118235,0.071867,0.133510,-0.520935,7.516000,16.052771

-1.271010,-3.514557,14.248631,16.112352,-0.395508,-0.129222,-0.342939,7.520000,16.052771

-5.400023,4.800951,12.631992,16.118235,0.427861,0.183339,-0.404225,7.520000,16.052771

-5.194052,-1.212944,10.004656,16.115294,0.125693,-0.434588,-0.413551,7.516000,16.052771

-2.825377,2.029913,11.357841,16.124117,0.493678,-0.044486,-0.296574,7.524000,16.052771

-2.861303,-1.632072,6.891129,16.127058,-0.121318,-0.364774,-0.293377,7.524000,16.052771

-4.317474,6.326578,3.277045,16.115294,0.306621,-0.073531,-0.167073,7.508000,16.052771

-3.539093,-6.311940,11.331496,16.124117,-0.252417,-0.391687,-0.195318,7.520000,16.052771

-5.505404,7.224710,14.021103,16.115294,0.610655,0.336288,-0.151086,7.520000,16.052771

-4.312685,-0.539943,6.591752,16.118235,-0.093339,-0.940333,-0.230758,7.528000,16.052771

-0.459098,7.624679,7.252778,16.124117,0.372704,0.097005,0.196115,7.524000,16.052771

2.000587,-0.350737,12.061977,16.118235,-0.614806,-0.465231,0.305631,7.516000,16.648031

-1.685348,7.715690,12.955319,16.118235,0.540042,0.105532,0.386103,7.524000,16.648031

-4.906649,5.562567,5.992997,16.094706,0.219488,-0.014110,0.243812,7.512000,16.648031

-5.148546,-0.777050,11.717094,16.115294,-0.193796,-0.559825,0.139891,7.512000,16.648031

0.774337,2.391561,6.812094,16.124117,0.115301,-0.315212,0.232087,7.508000,16.648031

-3.426527,-7.648361,15.060542,16.118235,-0.060031,-0.188110,0.350130,7.516000,16.648031

-5.809572,0.808453,7.985653,16.115294,-0.312904,-0.287500,0.300835,7.516000,16.648031

1.634149,5.620048,7.358159,16.118235,0.111037,-0.481751,0.132697,7.520000,16.648031

-1.048273,0.401300,6.256449,16.115294,0.338330,-0.302422,0.143622,7.520000,16.648031

-2.252968,-0.616584,12.387700,16.118235,-0.530071,-0.342658,0.111913,7.516000,16.648031

0.477355,5.208104,11.978151,16.115294,0.173923,-0.204630,0.143888,7.516000,16.648031

-0.056735,2.609508,6.625282,16.129999,0.302357,-0.165727,0.143089,7.520000,16.648031

-1.553622,-5.761086,11.424902,16.121176,-0.245489,-0.509996,0.094326,7.504000,16.648031

2.522702,8.709622,8.708950,16.109411,0.367108,-0.201699,0.220363,7.500000,16.648031

1.193465,-3.140934,9.255014,16.115294,0.058544,-0.290431,0.369582,7.504000,16.648031

0.314493,7.641444,9.288545,16.118235,0.080661,-0.050082,0.567297,7.504000,16.648031

-3.416947,0.367769,11.125525,16.106470,0.128890,-0.158266,0.528127,7.508000,16.648031

-0.178881,11.775248,8.431128,16.121176,0.146477,-0.099111,0.442859,7.504000,16.648031

0.108522,-3.904946,7.219247,16.109411,-0.163419,-0.338928,0.262731,7.508000,16.648031

0.362394,7.258241,12.311059,16.115294,-0.245223,0.002144,0.336008,7.508000,16.648031

1.021024,3.404654,8.771220,16.118235,0.302890,0.089278,0.277386,7.524000,16.648031

-3.352282,3.447764,12.179333,16.121176,-0.305177,0.026126,0.072210,7.524000,16.648031

0.403109,9.638890,7.470724,16.106470,0.079861,-0.026900,0.007193,7.528000,16.648031

0.101337,-6.570602,12.679893,16.103529,-0.566843,-0.045286,0.030908,7.516000,16.648031

0.125287,9.509559,12.435600,16.115294,0.109172,0.277134,-0.189456,7.520000,16.648031

1.612594,-2.906222,6.675578,16.118235,0.112103,-0.215555,-0.340807,7.520000,16.648031

1.032999,2.535262,6.567802,16.124117,-0.120518,-0.185179,-0.260069,7.524000,16.648031

-1.618287,-0.525573,8.469448,16.109411,0.293564,-0.045819,0.039435,7.520000,16.648031

-1.520092,-3.464262,10.050160,16.103529,-0.371260,-0.087920,0.208372,7.520000,16.648031

1.780245,6.079891,10.694421,16.124117,0.273047,0.010938,0.280317,7.520000,16.648031

-0.887806,-2.978073,9.839399,16.109411,-0.151695,-0.048483,0.357591,7.516000,16.648031

-1.898505,6.587635,12.200889,16.106470,-0.223906,0.195330,0.599006,7.520000,16.648031

0.027091,-0.587843,7.978468,16.115294,0.333267,-0.034361,0.592078,7.520000,16.384201

-2.554740,-1.069242,13.597185,16.129999,-0.209783,-0.107638,0.569429,7.516000,16.384201

0.750387,1.716165,12.124248,16.124117,0.037760,0.148965,0.648835,7.528000,16.384201

-1.400341,6.384058,10.402228,16.109411,0.220021,0.193465,0.573692,7.516000,16.384201

3.169357,6.060731,7.647956,16.138823,0.410541,0.189201,0.685873,7.528000,16.384201

-3.155890,0.796478,9.710068,16.118235,-0.274001,0.032255,0.640308,7.512000,16.384201

1.092875,1.953272,10.718371,16.109411,0.463301,0.254218,0.844685,7.520000,16.384201

-3.972592,3.086117,4.694897,16.106470,-0.228702,0.215314,0.948605,7.528000,16.384201

2.453246,2.245465,12.734978,16.091763,-0.040047,0.356806,0.661892,7.532000,16.384201

-0.372877,5.718243,10.562695,16.112352,0.160333,0.356806,0.345068,7.524000,16.384201

4.213585,5.409286,8.404782,16.115294,0.191776,0.114325,0.222761,7.536000,16.384201

1.392252,0.643197,7.166557,16.112352,0.109705,0.277667,-0.114047,7.528000,16.384201

-5.419183,6.297838,7.214457,16.097647,-0.183670,0.535069,-0.513741,7.536000,16.384201

0.110917,4.369847,8.194020,16.115294,-0.291854,0.196662,-0.671487,7.528000,16.384201

3.190912,0.430040,12.560142,16.103529,0.282373,0.069826,-0.708525,7.528000,16.384201

-1.373995,1.524564,7.640771,16.115294,-0.348344,0.026126,-0.663226,7.528000,16.384201

-2.157167,2.453831,12.770903,16.109411,0.234942,0.085814,-0.910237,7.524000,16.384201

-0.430358,-3.219970,8.840676,16.118235,-0.237495,-0.117497,-0.549181,7.532000,16.384201

-2.442174,4.626114,12.291899,16.112352,0.068670,0.418892,-0.353597,7.520000,16.384201

