ax,ay,az,gx,gy,gz,temp,volt,vel

-0.777636,2.779554,9.300520,18.777058,-0.002209,0.007740,-0.018121,2.924000,2775.502520

-0.150140,2.408326,9.271779,18.818233,-0.014733,-0.060741,-0.068749,2.764000,2776.612565

-0.418383,2.420301,9.360395,18.821175,-0.008071,0.033321,0.116709,2.684000,2776.612565

-0.835116,2.578372,9.367580,18.835880,-0.002742,0.027458,0.009591,2.616000,2776.057437

-0.875831,2.700518,9.223879,18.844706,-0.005940,0.009605,-0.062620,2.544000,2777.167906

-0.777636,2.417906,9.355605,18.856470,-0.006473,0.001079,-0.041836,2.468000,2776.612565

-0.686625,2.465806,9.348420,18.856470,0.003387,-0.008248,0.015986,2.384000,2777.167906

-0.595614,2.741234,9.274175,18.862352,0.002054,-0.007448,0.066348,2.296000,2775.502520

-0.313002,2.640643,9.293335,18.874117,-0.002476,-0.001053,0.039968,2.224000,2775.502520

-0.454308,2.508917,9.326865,18.882940,-0.001943,0.007474,-0.005331,2.148000,2777.167906

-0.890202,-0.408217,0.817360,36.527058,0.121962,0.007740,-0.000268,2.044000,2776.612565

-0.598009,2.432276,9.362790,18.915293,-0.001410,0.003477,0.015720,1.920000,2776.612565

-0.732130,2.815479,9.259805,18.900587,0.000189,-0.006915,0.007193,1.840000,2776.057437

-0.849486,2.583162,9.286150,18.906469,-0.005140,-0.014909,-0.012792,1.776000,2777.167906

-0.851881,2.125714,9.470566,18.929998,0.011380,-0.037825,-0.045300,1.712000,2775.502520

-0.269891,2.918465,9.300520,18.932940,0.012180,-0.033029,0.022382,1.656000,2777.167906

0.264198,2.784344,9.195139,18.935881,-0.005940,-0.001053,0.090596,1.600000,2777.167906

-0.274681,2.575977,9.360395,18.938822,-0.005140,0.026126,0.010391,1.528000,2775.502520

-0.260311,2.662198,9.252620,18.944704,-0.009137,0.033587,-0.032510,1.484000,2777.167906

-0.562084,2.820269,9.283754,18.956469,-0.013667,0.045311,-0.013058,1.428000,2776.612565

-0.660280,2.401141,9.338840,18.956469,-0.016332,0.045844,0.017052,1.380000,2776.612565

-0.863856,2.537657,9.250224,18.950586,-0.008604,0.050374,0.007726,1.300000,2777.167906

-0.983607,2.652618,9.355605,18.988823,-0.011535,0.025860,0.005594,1.260000,2776.057437

-0.914152,2.360425,9.444221,18.988823,-0.007538,0.012803,0.034905,1.208000,2776.612565

-1.033903,2.564002,9.391530,18.985882,0.003653,-0.002119,0.071411,1.164000,2775.502520

-0.815956,2.580767,9.243039,18.991764,0.004985,-0.018373,0.111646,1.132000,2776.057437

-0.830326,2.449041,9.422666,18.988823,0.004719,-0.024235,0.144421,1.104000,2777.167906

-0.550109,2.611902,9.252620,18.974117,0.005252,-0.030897,0.211836,1.084000,2777.167906

-0.626749,2.513707,9.314890,19.003529,0.007117,-0.025301,0.321086,1.056000,2776.612565

-0.408803,2.681358,9.271779,18.991764,0.007384,-0.024768,0.406887,1.036000,2776.612565

-0.013624,2.707703,9.367580,18.991764,0.005518,-0.027166,0.380241,1.012000,2777.167906

0.082176,2.544842,9.374765,19.009411,0.003387,0.013069,0.229956,0.984000,2775.502520

0.187557,2.963970,9.307705,19.018234,-0.001943,0.016533,0.143888,0.972000,2776.612565

0.103732,2.513707,9.298124,19.015293,-0.010736,0.036518,0.103653,0.960000,2776.057437

0.077386,2.705308,9.288545,19.018234,-0.009404,0.054371,-0.092730,0.948000,2777.167906

-0.188461,2.633458,9.326865,19.027058,-0.018197,0.063964,-0.192654,0.936000,2777.167906

-0.497418,2.434671,9.355605,19.021175,-0.013134,0.058901,-0.284850,0.924000,2775.502520

-0.827931,2.688543,9.293335,19.021175,-0.010736,0.031455,-0.414084,0.924000,2776.057437

-1.287775,2.985526,8.977192,19.000587,-0.016332,0.024527,-0.404225,0.908000,2777.167906

-0.535739,2.877750,9.434641,19.027058,0.000722,-0.010379,-0.308032,0.904000,2775.502520

-0.928522,2.710098,8.838281,19.021175,-0.002742,-0.011978,-0.444727,0.900000,2777.167906

-1.613497,2.415511,9.537626,19.041763,0.010581,-0.096713,-0.547049,0.900000,1926.181171

-2.106871,2.408326,8.677814,19.044704,0.013779,-0.117497,-0.620059,0.896000,2777.167906

-2.260153,2.324500,9.334050,19.038822,0.035629,-0.137482,-0.624056,0.896000,2762.801308

-2.025441,2.705308,9.494516,19.032940,0.018042,-0.169191,-0.593946,0.892000,2763.351139

-2.094896,2.578372,9.906460,19.041763,0.091586,-0.209693,-0.594746,0.892000,410.787203

-1.342860,3.617811,9.504096,19.027058,0.155537,-0.205963,-0.530528,0.892000,658.377495

-0.645909,2.350845,9.072993,19.059410,0.127825,-0.258189,-0.470041,0.892000,481.762471

-0.708180,2.793924,9.082573,19.032940,0.092385,-0.278441,-0.394899,0.892000,1340.979144

-0.799191,2.928045,9.140054,19.027058,0.096915,-0.248330,-0.320556,0.888000,1431.972752

0.513280,3.809412,8.991562,19.047646,0.076131,-0.217954,-0.201980,0.888000,2775.502520

-0.528554,2.607113,8.881392,19.071175,0.020174,-0.145209,-0.143358,0.884000,2776.057437

0.048646,3.011871,8.771220,19.077057,0.001255,-0.177451,-0.177732,0.892000,2777.167906

-0.308212,3.411839,9.377160,19.079998,0.006851,-0.151604,-0.174534,0.888000,2777.167906

-0.303422,3.787857,9.662168,19.065292,0.010581,-0.146808,-0.164942,0.892000,2777.167906

0.436639,3.761512,9.652588,19.088821,-0.003009,-0.121494,-0.163876,0.884000,2777.167906

0.065411,2.611902,9.302915,19.079998,-0.088010,-0.148673,-0.183594,0.888000,2777.167906

0.405504,1.536539,8.299401,19.085880,-0.077352,-0.103908,-0.169471,0.888000,2775.502520

0.446219,1.615574,8.694579,19.085880,-0.066427,-0.111901,-0.179863,0.880000,2777.167906

-0.142955,1.998778,8.802356,19.100588,-0.004607,-0.014110,-0.178531,0.876000,2775.502520

-0.013624,3.270533,9.111313,19.082939,0.000988,-0.124425,-0.077542,0.888000,2776.057437

-0.360902,4.113580,9.456196,19.091763,0.020707,-0.039157,-0.030645,0.892000,2776.057437

-0.334557,3.598651,9.358000,19.074116,0.029766,0.003477,0.053558,0.892000,2771.071451

-0.708180,2.817874,9.796288,19.091763,-0.010469,0.000013,0.066348,0.884000,2756.767782

-1.184789,2.987921,9.322075,19.097647,0.054814,-0.059941,-0.052494,0.888000,2777.167906

0.118102,3.857313,9.580737,19.112352,0.039892,-0.052214,-0.057024,0.884000,2775.502520

0.017511,3.229818,9.880115,19.106470,0.008716,-0.027966,0.054623,0.884000,2776.612565

0.348024,3.287298,9.465776,19.100588,0.005785,0.041314,0.134296,0.884000,2776.612565

-1.072223,2.331685,9.561577,19.115294,-0.038182,0.043180,0.032507,0.876000,2776.057437

-1.124913,2.250255,9.470566,19.135881,0.020707,-0.035160,-0.148154,0.876000,2776.612565

-0.681835,3.213053,9.123288,19.115294,-0.016332,-0.002652,-0.091664,0.876000,2776.057437

-0.813561,2.772369,9.283754,19.118235,-0.001676,-0.045019,-0.021052,0.876000,2776.612565

-0.150140,3.349569,9.616662,19.118235,0.011380,-0.096447,0.136161,0.868000,2774.948028

-1.088988,2.736444,9.190349,19.129999,0.078795,-0.063938,0.188388,0.872000,2776.057437

0.326468,2.413116,9.034673,19.129999,0.047619,-0.078061,0.200112,0.872000,2775.502520

1.186280,2.278995,9.041858,19.138823,-0.016865,-0.075396,0.161208,0.868000,2774.948028

0.819842,3.426209,9.381950,19.124117,0.017243,-0.011179,0.192918,0.864000,2774.948028

-0.777636,1.565279,8.778405,19.144705,-0.162353,0.319768,0.248075,0.864000,2776.057437

1.801800,4.118370,9.034673,19.115294,-0.346745,0.043979,0.246476,0.864000,2775.502520

-2.207462,1.912557,9.437036,19.141764,0.107840,0.144169,0.224893,0.864000,2776.612565

0.496515,2.688543,9.616662,19.144705,-0.064561,-0.040223,0.298170,0.864000,2776.057437

-0.037575,2.259835,9.743598,19.132940,-0.032852,0.055437,0.237950,0.860000,2776.057437

0.086966,1.273087,9.963940,19.147646,-0.047241,0.043713,0.263264,0.860000,2756.767782

0.901273,1.251532,9.911250,19.171175,0.024704,0.050108,0.265395,0.860000,2775.502520

0.486935,2.322105,9.508886,19.127058,0.017509,0.061566,0.283781,0.856000,2777.167906

0.240248,3.397469,9.111313,19.141764,0.037494,0.086613,0.316823,0.860000,2775.502520

-0.808771,3.684871,9.360395,19.138823,0.006584,0.093808,0.313891,0.856000,2777.167906

-0.286657,2.872960,8.981982,19.159410,-0.018730,0.054638,0.469506,0.856000,2776.612565

-0.600404,2.341265,9.391530,19.159410,-0.006739,0.064497,0.646437,0.856000,2777.167906

0.072596,2.525682,9.391530,19.147646,-0.001943,0.048242,0.785530,0.856000,2776.057437

-0.293842,2.346056,9.393926,19.150587,0.002587,0.068227,0.867068,0.852000,2777.167906

0.831818,2.666988,8.953242,19.141764,0.018575,0.028791,0.781267,0.852000,2774.393535

-0.095055,2.537657,9.779524,19.147646,0.021772,0.045578,0.505744,0.852000,2776.612565

1.270106,2.197564,9.496911,19.138823,-0.022727,-0.013310,0.172400,0.852000,2777.167906

1.176700,2.607113,9.599897,19.141764,-0.048840,-0.041289,0.022382,0.848000,2777.167906

2.333495,1.735325,9.099339,19.124117,-0.043777,0.031455,-0.170537,0.848000,2776.612565

1.001864,3.124437,9.707673,19.115294,-0.006473,0.042380,-0.266197,0.852000,2776.057437

1.203046,4.391402,8.318562,19.112352,0.117699,-0.003984,-0.400494,0.848000,2774.393535

-2.425409,3.526800,11.060859,19.135881,0.310884,-0.112701,-0.440464,0.848000,2777.167906

0.479750,1.900582,8.081454,19.121176,0.141148,-0.095114,-0.515340,0.844000,2774.948028

1.315612,3.960299,9.214299,19.129999,-0.041113,-0.101243,-0.495622,0.848000,2774.948028

-0.365692,3.248978,8.955637,19.118235,-0.018730,-0.055944,-0.613398,0.848000,2159.875427

0.515675,3.059771,9.410690,19.118235,-0.021128,-0.055678,-0.784200,0.848000,1277.563661

0.127682,3.512430,9.247829,19.129999,0.034563,-0.029831,-0.817508,0.844000,2774.393535

-0.061525,3.043006,8.888577,19.124117,0.004186,-0.049016,-0.867603,0.848000,2777.167906

0.422269,3.641761,8.445498,19.118235,0.014045,-0.054079,-0.896381,0.844000,2776.057437

0.977914,4.003409,9.216694,19.127058,-0.002742,0.001878,-0.816975,0.848000,2774.393535

-0.159721,3.627391,9.132869,19.118235,-0.046175,0.069027,-0.760485,0.844000,2768.861319

-1.129703,3.124437,8.399992,19.135881,-0.062163,-0.010646,-0.905707,0.848000,2777.167906

0.022301,4.434513,9.161609,19.132940,-0.006473,-0.030630,-1.086902,0.860000,2777.167906

-0.202831,3.754327,8.706554,19.135881,0.040958,0.029857,-1.238785,1.332000,2772.731539

-0.495023,4.638089,9.274175,19.141764,0.014045,0.054904,-1.254773,1.452000,2304.321126

-1.544042,3.854918,8.749665,19.138823,-0.021927,0.045844,-1.188690,1.704000,2761.153297

-1.805099,3.349569,9.159214,19.141764,-0.074687,-0.007715,-1.156182,1.924000,2764.451438

-1.417106,3.682476,8.895761,19.138823,-0.022194,0.001079,-1.074911,3.064000,2776.057437

-1.151259,4.456068,8.991562,19.147646,0.023105,-0.031430,-0.908372,3.856000,2029.203481

-1.467401,4.341107,8.287426,19.147646,-0.008071,0.008540,-0.782069,4.552000,2768.861319

-1.563202,5.368570,8.637099,19.150587,0.005518,-0.000520,-0.609667,4.772000,2491.627406

-1.596732,4.429723,8.256291,19.124117,-0.055502,-0.010113,-0.442329,4.876000,2776.057437

-1.460216,4.238121,8.756850,19.135881,-0.036316,-0.010113,-0.203046,5.344000,2773.839254

-1.666188,4.199801,8.644284,19.132940,-0.048307,0.018932,-0.058890,5.664000,2763.351139

-1.409921,3.969878,9.106524,19.150587,-0.042711,-0.023969,0.015720,5.800000,2723.781709

-1.539252,3.347173,8.620334,19.144705,-0.058166,0.045311,0.047695,6.312000,2658.085644

-2.645751,2.678963,8.953242,19.150587,-0.052038,-0.014110,0.207040,6.496000,2577.657275

-2.046996,2.880145,9.216694,19.144705,0.021772,-0.013577,0.285646,6.620000,2595.969311

-2.324818,3.629786,9.084968,19.144705,0.017509,-0.000787,0.312026,6.968000,1836.994273

-2.248178,3.866893,7.983259,19.129999,0.045754,-0.061007,0.313891,6.952000,2762.801308

-2.370324,4.362662,9.338840,19.147646,0.088388,-0.072199,0.232087,7.152000,2744.779550

-2.123636,4.884776,8.222761,19.138823,0.054814,-0.108704,0.087931,7.152000,2010.692066

-1.330885,3.620206,8.043135,19.141764,0.002321,-0.010113,0.086066,7.196000,2397.831034

-1.642238,3.272928,10.521979,19.153528,-0.060564,-0.104174,0.160143,7.204000,2218.894059

-0.600404,1.220396,9.528047,19.138823,-0.021128,-0.099644,0.418078,7.200000,2763.351139

0.091757,0.188143,8.790380,19.156469,0.070002,0.029857,0.698130,7.156000,2773.285397

-1.002767,0.166588,10.593830,19.144705,-0.120518,0.056769,0.802051,7.100000,2761.153297

-1.544042,0.331844,11.075230,19.147646,0.038560,0.051174,0.729573,7.000000,2580.531442

-0.974027,0.475545,10.414204,19.144705,-0.010203,-0.010379,0.481496,6.852000,2776.612565

0.103732,0.631221,8.720924,19.135881,-0.045909,-0.039690,0.071411,6.712000,2722.179888

0.283358,3.138807,9.700488,19.162352,-0.017664,-0.035427,-0.315226,6.568000,2672.923890

-0.214806,3.464530,9.745994,19.150587,-0.077618,-0.005583,-0.463113,6.360000,2772.731539

0.115707,2.805899,9.930409,19.147646,0.016443,-0.051681,-0.333346,6.328000,2769.413481

-0.734525,2.489757,8.613149,19.156469,0.027901,0.159357,-0.036240,6.376000,2769.966067

-3.984567,1.970037,10.189072,19.174116,0.057745,0.006674,0.444725,6.632000,2773.839254

-4.573741,1.352122,9.190349,19.156469,0.090520,-0.066869,0.716783,6.516000,1972.980832

-2.432594,1.249136,8.146120,19.141764,-0.065094,-0.138548,0.795123,6.520000,1768.671413

-0.969237,3.038216,10.093271,19.165293,0.105975,-0.017307,0.954201,6.624000,2304.703572

0.242643,2.396351,9.492122,19.174116,-0.024858,-0.038624,1.110081,6.516000,2661.142029

0.046251,2.063443,8.869416,19.165293,-0.021394,-0.034627,1.170302,6.608000,2725.920649

0.815052,3.210657,9.463381,19.165293,0.029500,0.007740,1.175365,6.592000,2399.073929

1.155145,2.132899,8.182045,19.174116,0.026835,0.108729,1.172967,6.460000,1428.437304

1.210231,8.381505,14.078584,19.165293,0.171524,0.024261,1.118875,6.740000,2658.594583

-3.325936,-4.522861,8.337722,19.159410,-0.153027,0.104200,0.837757,6.588000,2776.612565

3.389699,4.820111,10.510005,19.168234,0.095050,0.131645,0.543582,6.388000,2769.966067

3.305873,3.162757,10.201047,19.182940,0.013779,0.261146,0.526262,6.276000,2377.305265

0.474960,2.504127,9.640613,19.188822,-0.059765,0.307244,0.445790,6.140000,2274.130189

-1.053063,2.798714,8.797565,19.182940,0.113702,0.245425,0.303766,6.036000,1593.692164

-3.883976,6.796002,12.255974,19.171175,-0.033918,-0.579277,0.214501,7.020000,1269.736562

-6.803504,-4.597106,5.422983,19.171175,0.003920,1.181774,0.126835,6.896000,2776.057437

1.399437,5.114698,11.276411,19.177057,-0.171679,-0.237938,-0.309897,6.932000,2776.612565

0.783917,1.486243,10.045371,19.179998,0.014312,0.170549,-0.482831,6.832000,2592.092523

-1.249454,4.410563,8.857441,19.182940,0.112370,0.161756,-0.619527,6.680000,2762.801308

-1.417106,0.535421,8.179650,19.197645,0.043622,0.061566,-0.732507,6.608000,2772.731539

-0.188461,3.660921,9.231064,19.194704,0.083858,0.081017,-0.966727,6.524000,2769.966067

-0.535739,3.011871,8.399992,19.185881,0.072400,0.089544,-1.088234,6.556000,2520.573542

-1.323700,2.415511,9.599897,19.168234,-0.024326,0.015734,-1.186292,6.520000,2766.654578

-1.769174,3.464530,10.629756,19.191763,0.033230,0.000279,-1.212406,6.448000,2777.167906

-1.826654,3.495665,9.932805,19.194704,0.062275,-0.032496,-1.236920,6.740000,2744.779550

-1.905690,3.555540,9.379556,19.182940,0.096915,-0.054346,-1.064785,6.724000,2761.153297

-1.498536,3.704032,9.429851,19.191763,0.094250,-0.092983,-0.819373,6.952000,1415.766708

-1.280590,2.837034,8.502978,19.182940,0.099846,-0.074064,-0.536124,7.036000,1108.649827

-1.402736,2.631063,7.750942,19.209410,0.060143,-0.073531,-0.165475,7.004000,1108.649827

-1.687743,2.604717,9.290939,19.177057,-0.039780,-0.071932,0.195582,7.080000,1108.649827

-2.171537,2.568792,9.168794,19.191763,0.021772,-0.075929,0.507343,7.008000,1108.649827

-2.372719,3.289693,8.893367,19.191763,0.149941,-0.015708,0.678945,7.108000,1108.649827

-1.965565,2.822664,8.953242,19.191763,-0.014733,-0.081791,0.691469,7.072000,1108.649827

-1.088988,4.259676,8.943662,19.200586,-0.046708,-0.018640,0.661359,7.104000,1108.649827

0.276173,4.535103,9.235854,19.188822,0.029500,0.061299,0.611797,7.152000,1108.649827

0.144447,5.555382,8.790380,19.177057,0.060676,0.062365,0.501481,7.152000,1108.649827

0.273778,3.066956,9.257409,19.185881,-0.161820,0.064763,0.390366,7.192000,1108.649827

-0.648305,4.238121,9.686118,19.197645,-0.019529,0.152429,0.150284,7.204000,1108.649827

-1.065038,2.920860,8.246711,19.191763,-0.014466,0.140971,-0.014390,7.224000,1108.649827

-1.733248,2.872960,8.859837,19.209410,-0.063229,0.123118,-0.114580,7.232000,1108.649827

-1.903295,1.778436,9.822634,19.179998,-0.024059,0.116723,-0.209707,7.236000,1108.649827

-1.718878,3.469320,9.017907,19.197645,0.029500,0.071158,-0.204112,7.252000,1108.649827

-1.639843,2.875355,8.799960,19.174116,-0.016865,0.062099,-0.182795,7.256000,1108.649827

-2.291288,3.196287,8.742480,19.206469,0.052682,0.072757,-0.163876,7.264000,1108.649827

-2.463729,3.031031,9.901670,19.188822,-0.078950,0.034919,-0.093796,7.260000,1108.649827

-1.702113,3.232213,9.065807,19.194704,-0.060031,0.028258,-0.081272,7.264000,1108.649827

-1.745224,1.718560,8.759245,19.188822,0.000189,-0.043954,-0.152151,7.280000,1108.649827

-1.259035,3.239398,9.856164,19.182940,-0.005940,-0.029565,-0.178798,7.288000,1108.649827

-1.500932,2.779554,10.409413,19.185881,0.022572,-0.035693,-0.275790,7.288000,1108.649827

-0.871041,1.443133,9.111313,19.188822,0.088122,-0.082857,-0.393033,7.280000,1108.649827

-0.617169,2.111343,9.326865,19.188822,0.039093,-0.080992,-0.437533,7.256000,1108.649827

0.309703,2.015543,10.383068,19.188822,0.001255,-0.068468,-0.416749,7.276000,1108.649827

0.484540,1.206026,9.307705,19.182940,0.015377,-0.076995,-0.396231,7.256000,1108.649827

0.039066,2.784344,9.168794,19.209410,0.057478,-0.007448,-0.399162,7.252000,1108.649827

-0.981212,1.962852,9.432246,19.188822,0.077463,-0.033295,-0.439931,7.236000,1108.649827

-1.338070,1.162916,9.422666,19.162352,0.031365,-0.086854,-0.512142,7.232000,1108.649827

-0.904572,3.162757,9.851375,19.171175,0.028168,-0.056211,-0.605138,7.224000,1108.649827

-1.591942,2.707703,9.504096,19.182940,0.040691,-0.018906,-0.836693,7.236000,1108.649827

-0.495023,2.904095,8.833491,19.188822,0.007384,-0.072199,-1.118078,7.224000,1108.649827

-0.365692,3.471714,8.759245,19.194704,0.058544,-0.116431,-1.291278,7.236000,1108.649827

0.324073,2.951995,10.248947,19.182940,0.068670,-0.049016,-1.328317,7.252000,1108.649827

-4.415670,-0.968652,7.815607,19.191763,0.186180,0.015468,-1.337909,7.260000,1108.649827

-0.389642,0.351004,11.350657,19.162352,0.012713,-0.232076,-1.258237,7.244000,1108.649827

-2.008676,1.388048,10.658496,19.177057,0.071867,-0.006649,-1.137796,7.220000,1108.649827

-0.962052,2.367611,8.955637,19.191763,0.116633,-0.078061,-0.982981,7.196000,1108.649827

-2.509235,2.173614,8.613149,19.168234,0.025503,-0.059142,-0.966994,7.208000,1108.649827

-4.846774,3.301668,8.574828,19.191763,0.164596,0.007740,-0.929955,7.216000,1108.649827

-3.385812,2.880145,9.698093,19.177057,0.081460,-0.245666,-0.911836,7.240000,1108.649827

-1.864974,3.653736,9.235854,19.171175,0.075598,-0.314413,-0.895582,7.244000,1108.649827

-1.982330,1.471873,9.046648,19.179998,0.242936,-0.221684,-0.919830,7.268000,1108.649827

-1.299750,1.807176,9.971126,19.174116,0.198704,-0.254992,-0.929689,7.272000,1108.649827

-0.811166,3.301668,9.686118,19.179998,0.149674,-0.261920,-0.904375,7.284000,1108.649827

-0.930917,3.129227,9.379556,19.182940,0.198437,-0.270713,-0.810580,7.276000,1108.649827

-3.105594,2.111343,9.666958,19.174116,0.213892,-0.226214,-0.659496,7.260000,1108.649827

-3.529513,2.267020,9.937595,19.168234,0.220287,-0.279773,-0.414084,7.296000,1108.649827

-3.244506,3.011871,8.495793,19.168234,0.202701,-0.289099,-0.151086,7.276000,1108.649827

-3.124755,2.578372,8.112590,19.162352,0.245068,-0.260854,0.147352,7.304000,1108.649827

-3.759435,2.853800,9.274175,19.153528,0.120897,-0.320009,0.372780,7.304000,1108.649827

-3.033744,3.136412,8.917316,19.168234,0.175255,-0.343457,0.516403,7.292000,1108.649827

-1.991910,3.553145,8.538903,19.177057,0.230946,-0.321074,0.719181,7.304000,1108.649827

-1.860184,2.870565,7.513834,19.165293,0.136884,-0.301356,0.973919,7.296000,1108.649827

-2.406249,1.859866,8.361671,19.156469,0.009249,-0.266983,1.083435,7.292000,1108.649827

-1.608707,0.830008,10.811777,19.153528,0.035895,-0.300290,1.160976,7.292000,1108.649827

-0.993187,2.108948,9.369975,19.162352,0.040158,-0.256058,1.227325,7.280000,1108.649827

-1.591942,3.210657,9.801079,19.168234,-0.007538,-0.178784,1.323251,7.264000,1108.649827

-2.621801,2.532867,10.086086,19.153528,0.089188,-0.217421,1.361089,7.280000,1108.649827

-0.526159,1.761671,10.984219,19.168234,-0.046975,-0.235007,1.374679,7.268000,1108.649827

-1.402736,2.925650,10.859677,19.179998,0.077463,-0.119629,1.375211,7.288000,1108.649827

0.412689,3.186707,10.330379,19.168234,-0.002742,-0.180116,1.464210,7.288000,1108.649827

-0.495023,3.318433,9.729228,19.162352,0.156070,-0.067935,1.394397,7.300000,1108.649827

1.028209,2.120924,8.929292,19.165293,0.111037,-0.019972,1.272624,7.280000,1108.649827

-1.366810,1.244346,9.003537,19.177057,0.075065,0.050641,1.325650,7.292000,1108.649827

-2.844537,2.930440,7.825187,19.171175,0.105442,0.083416,1.179894,7.316000,1108.649827

-1.975145,1.364097,9.195139,19.174116,-0.034984,0.069826,1.085833,7.300000,1108.649827

-0.708180,1.495824,8.938871,19.191763,-0.033385,0.066895,1.028544,7.300000,1108.649827

0.319283,2.302945,10.064531,19.179998,0.167794,0.192665,1.039469,7.296000,1108.649827

-0.492628,2.343660,8.617939,19.194704,0.081727,0.157759,0.886253,7.308000,1108.649827

-1.009952,1.000055,11.573393,19.200586,0.103576,0.120720,0.765013,7.320000,1108.649827

-0.334557,1.977222,10.248947,19.206469,0.139549,0.134843,0.808179,7.304000,1108.649827

-0.614774,2.391561,8.510163,19.197645,0.145944,0.146567,0.846550,7.304000,1108.649827

-0.004044,3.014266,7.865902,19.206469,0.095583,0.172947,0.929686,7.316000,1108.649827

-0.047155,3.308853,7.789262,19.188822,0.006851,0.229970,0.999233,7.300000,1108.649827

0.034276,3.110067,9.202324,19.188822,0.140615,0.228371,1.070112,7.312000,1108.649827

-1.381181,2.312525,9.025092,19.203527,0.022039,0.283262,1.102887,7.316000,1108.649827

-1.421896,2.362821,8.845466,19.194704,0.069469,0.301648,1.070645,7.324000,1108.649827

-0.720155,2.805899,10.351933,19.194704,0.091053,0.263011,1.029343,7.324000,2487.164554

-0.085475,2.358031,9.963940,19.191763,0.232011,0.199860,0.938213,7.312000,2487.164554

0.118102,4.044125,8.658654,19.194704,0.103576,0.223575,0.830829,7.320000,2487.164554

0.867743,4.846456,7.782077,19.197645,0.180318,0.228638,0.734902,7.332000,2487.164554

0.949174,2.956785,8.629914,19.182940,0.084658,0.215581,0.649368,7.328000,2487.164554

0.671351,3.761512,8.431128,19.206469,0.122762,0.393311,0.585683,7.348000,2487.164554

-1.189579,3.043006,8.366462,19.200586,0.122495,0.380521,0.541450,7.348000,2487.164554

-1.031508,2.477782,10.292058,19.191763,0.071068,0.300316,0.482829,7.340000,2487.164554

-0.935707,2.693333,10.210628,19.182940,0.101978,0.258215,0.455383,7.352000,2487.164554

0.233063,1.012030,9.166399,19.188822,-0.008071,0.218778,0.386103,7.344000,2487.164554

0.767152,2.142479,9.072993,19.188822,-0.028056,0.276068,0.267527,7.340000,2487.164554

0.877323,2.769974,8.797565,19.168234,0.016976,0.350145,0.203043,7.332000,2487.164554

-0.248336,1.922137,9.164003,19.174116,-0.022993,0.306178,0.080737,7.320000,2487.164554

-0.803981,2.604717,9.492122,19.182940,-0.049906,0.281397,-0.099658,7.324000,2487.164554

-1.096173,2.710098,10.617781,19.177057,0.049485,0.301115,-0.316559,7.332000,2487.164554

-0.152535,3.711217,9.381950,19.168234,0.044155,0.260080,-0.603539,7.324000,2487.164554

0.434244,1.843101,8.895761,19.182940,0.072933,0.206255,-0.740501,7.328000,2487.164554

-0.291447,2.590347,8.155700,19.185881,-0.045376,0.162821,-0.845220,7.324000,2487.164554

0.230668,1.294642,9.209509,19.174116,-0.090941,0.099670,-0.868136,7.312000,2487.164554

-0.039970,1.629945,9.789104,19.200586,-0.136506,0.103400,-0.884657,7.320000,2487.164554

-0.442333,1.431158,10.069321,19.174116,-0.126647,0.050641,-0.846553,7.292000,2487.164554

-0.602799,1.749696,8.912526,19.174116,-0.119453,0.039449,-0.774075,7.272000,2487.164554

-0.849486,1.414393,9.494516,19.174116,-0.178607,0.027192,-0.738369,7.260000,2487.164554

-0.301027,1.934112,9.820239,19.162352,-0.058433,-0.033561,-0.737303,7.280000,2487.164554

-0.540529,2.597533,10.725556,19.168234,-0.029122,-0.098045,-0.805784,7.264000,2487.164554

-0.492628,1.572464,8.732900,19.188822,-0.068292,-0.146009,-0.668023,7.276000,2487.164554

-0.739315,2.923255,10.289662,19.182940,-0.029921,-0.127623,-0.603006,7.260000,2487.164554

-0.523764,3.090906,9.307705,19.174116,0.078263,-0.113500,-0.513475,7.280000,2487.164554

-0.150140,1.867052,9.180769,19.177057,0.011114,-0.203831,-0.415949,7.284000,2487.164554

-0.202831,2.245465,9.930409,19.177057,0.044688,-0.190241,-0.185193,7.288000,2487.164554

-1.050668,1.996382,9.540022,19.174116,0.083059,-0.131620,-0.090332,7.264000,2487.164554

-1.350045,1.759276,8.653864,19.174116,0.022838,-0.176652,-0.087135,7.264000,2487.164554

-0.851881,3.502850,9.221484,19.177057,0.052949,-0.210226,-0.019986,7.256000,2487.164554

-0.825536,2.805899,8.883786,19.171175,0.123028,-0.220618,0.025046,7.292000,2487.164554

-0.327372,3.383099,9.049043,19.177057,0.021506,-0.206762,0.091129,7.280000,2487.164554

-0.835116,3.529195,10.234577,19.171175,0.084391,-0.192640,0.237150,7.288000,2487.164554

-1.321305,3.117252,9.523256,19.168234,0.093984,-0.188643,0.287778,7.280000,2487.164554

-1.481771,3.442974,8.989167,19.174116,0.115301,-0.215555,0.393031,7.304000,2487.164554

-1.522487,3.510035,7.717412,19.203527,0.112636,-0.202499,0.579288,7.288000,2487.164554

-1.323700,2.125714,8.493398,19.182940,-0.013933,-0.211292,0.783132,7.304000,2487.164554

-0.770451,4.206986,9.880115,19.177057,0.090253,-0.186244,1.059453,7.304000,2487.164554

-1.019533,2.676568,9.480146,19.191763,0.015910,-0.189176,1.403457,7.288000,2487.164554

-2.051786,2.923255,8.929292,19.171175,0.020973,-0.185712,1.700829,7.300000,2487.164554

-1.397946,2.935230,10.251343,19.188822,0.054814,-0.271779,1.859374,7.296000,2487.164554

-0.727340,2.796319,9.302915,19.179998,0.029500,-0.240603,1.962761,7.304000,2487.164554

-0.166906,4.259676,9.554392,19.206469,0.105442,-0.143078,2.036038,7.320000,2487.164554

1.037789,3.857313,9.228669,19.191763,0.129157,-0.069267,2.017919,7.324000,2487.164554

0.039066,3.086117,8.919712,19.188822,0.081194,-0.010646,1.860706,7.336000,2487.164554

-0.509393,1.783226,9.369975,19.185881,0.080661,-0.022104,1.655530,7.348000,2487.164554

1.009049,3.972274,9.199929,19.177057,-0.045110,0.018932,1.480198,7.352000,2733.432893

0.601896,2.132899,10.074111,19.179998,0.255993,0.143370,1.332577,7.356000,2733.432893

0.997074,2.255045,9.051437,19.174116,0.168860,0.133244,1.116210,7.368000,2733.432893

1.322797,2.061048,9.437036,19.165293,0.110238,0.140705,0.986976,7.364000,2733.432893

0.977914,1.500613,9.523256,19.174116,0.109439,0.157759,0.937414,7.376000,2733.432893

1.289266,1.359308,9.748388,19.182940,0.015910,0.286193,0.918228,7.376000,2733.432893

0.185162,1.898187,8.431128,19.188822,0.106508,0.217713,0.908103,7.372000,2733.432893

1.028209,2.468201,9.626243,19.174116,0.030832,0.366932,0.950470,7.380000,2733.432893

-1.338070,1.474268,8.591594,19.171175,0.147543,0.277134,0.941411,7.372000,2733.432893

0.879718,1.656290,9.075388,19.179998,0.110505,0.181740,0.990973,7.372000,2733.432893

1.837726,0.791688,9.183164,19.171175,0.106508,0.292855,0.904106,7.372000,2733.432893

0.970729,2.767579,8.833491,19.174116,0.137417,0.328295,0.847083,7.380000,2733.432893

0.577946,1.347332,10.584250,19.171175,0.112103,0.331226,0.881989,7.360000,2733.432893

1.064134,2.434671,9.683722,19.177057,0.178186,0.361869,0.892382,7.368000,2733.432893

2.034117,1.838311,9.281360,19.194704,0.140348,0.404503,0.847083,7.384000,2733.432893

1.550323,3.062166,9.827424,19.191763,0.232278,0.428218,0.826565,7.376000,2733.432893

0.795892,2.358031,8.670630,19.197645,0.237607,0.470053,0.799120,7.380000,2733.432893

0.712067,4.036940,8.914922,19.191763,0.237341,0.488172,0.747959,7.384000,2733.432893

0.151632,2.176009,10.217813,19.209410,0.233610,0.450601,0.663757,7.400000,2733.432893

-0.506998,2.458621,8.974797,19.191763,0.151007,0.410099,0.552908,7.400000,2733.432893

0.151632,2.290970,9.796288,19.188822,0.168327,0.386117,0.429270,7.392000,2733.432893

1.114430,1.938902,9.935200,19.206469,0.132887,0.409033,0.255803,7.384000,2733.432893

0.506095,2.350845,10.529164,19.197645,0.040691,0.443406,0.049561,7.380000,2733.432893

0.872533,2.801109,9.355605,19.191763,0.054814,0.466855,-0.074611,7.380000,2733.432893

0.551600,2.166429,9.628637,19.191763,0.055347,0.408500,-0.254739,7.380000,2733.432893

-0.921337,1.900582,9.197534,19.182940,0.072400,0.390114,-0.448191,7.376000,2733.432893

-0.638724,1.723350,8.031159,19.206469,-0.017930,0.293921,-0.570231,7.384000,2733.432893

0.201927,1.555699,9.537626,19.203527,-0.009404,0.232102,-0.500951,7.380000,2733.432893

-0.023204,1.804781,9.693303,19.200586,-0.019263,0.079152,-0.390102,7.372000,2733.432893

0.022301,2.805899,9.954360,19.194704,-0.010736,0.162821,0.005861,7.376000,2733.432893

0.031881,2.250255,10.962664,19.200586,0.010315,0.220111,0.601671,7.380000,2733.432893

-1.263825,3.270533,8.261081,19.188822,0.162998,0.194530,1.032008,7.388000,2733.432893

-3.809730,1.785621,9.367580,19.200586,0.020707,0.114325,1.052259,7.384000,2733.432893

-1.994306,1.675450,9.904064,19.182940,-0.040047,0.017599,1.074375,7.388000,2733.432893

-2.274523,3.399864,10.126801,19.168234,0.064406,0.140705,1.054124,7.392000,2733.432893

-1.493746,2.568792,9.465776,19.162352,0.146477,0.126582,0.943542,7.396000,2733.432893

0.381554,3.143597,8.617939,19.171175,0.107573,0.160423,0.758617,7.408000,2733.432893

0.762362,2.130504,9.475356,19.153528,0.071601,0.150298,0.747426,7.404000,2733.432893

1.624569,1.534144,10.251343,19.177057,0.116100,0.224907,0.787395,7.400000,13.388394

1.813776,2.142479,9.451406,19.174116,0.221886,0.343749,0.767944,7.412000,13.388394

0.496515,0.782108,8.831096,19.165293,0.203500,0.362135,0.640042,7.404000,13.388394

-0.633934,3.584280,10.047766,19.177057,0.047886,0.409832,0.476434,7.400000,13.388394

-0.020809,1.596414,11.183005,19.185881,0.100379,0.281664,0.138826,7.408000,13.388394

2.283200,3.129227,9.602292,19.182940,0.058811,0.301382,-0.263266,7.404000,13.388394

2.841239,1.744905,9.017907,19.200586,0.057745,0.390380,-0.592081,7.408000,13.388394

2.558627,3.557935,8.550879,19.212351,0.008183,0.438344,-0.847352,7.408000,13.388394

2.034117,3.196287,8.890971,19.206469,-0.042179,0.436478,-1.352831,7.392000,13.388394

1.682050,2.602323,9.496911,19.215292,-0.010203,0.427152,-1.552945,7.388000,13.388394

0.489330,1.510194,9.738809,19.209410,-0.016598,0.401838,-1.684844,7.392000,13.388394

-0.784821,3.898028,9.207114,19.215292,-0.040313,0.352543,-1.866305,7.404000,13.388394

0.288148,3.339988,8.380832,19.212351,-0.012601,0.174279,-1.982482,7.400000,13.388394

-0.229176,4.451278,8.261081,19.218235,-0.006206,0.199860,-1.931854,7.412000,13.388394

0.221088,1.991592,8.086245,19.218235,-0.077884,0.143636,-1.930522,7.408000,13.388394

0.283358,4.523129,10.234577,19.212351,-0.216711,0.084748,-1.849251,7.404000,13.388394

0.898878,3.577096,9.183164,19.218235,0.032165,0.068227,-1.651269,7.416000,13.388394

-1.381181,2.559212,10.035790,19.224117,-0.078151,0.004276,-1.535625,7.408000,13.388394

-2.070946,1.783226,12.112272,19.230000,0.035629,-0.054612,-1.394933,7.412000,13.388394

-1.134493,2.506522,9.949570,19.218235,0.098780,-0.072731,-1.247046,7.424000,13.388394

-0.253126,1.831126,11.422507,19.227058,-0.058966,-0.033029,-0.884923,7.416000,13.388394

0.987494,5.382940,9.274175,19.238823,0.165396,-0.030897,-0.599275,7.420000,13.388394

-0.806376,0.820428,10.284873,19.218235,0.179518,-0.082857,-0.469242,7.420000,13.388394

-3.268456,1.984407,6.529481,19.227058,0.144345,-0.116698,-0.361058,7.424000,13.388394

-3.766620,1.682635,8.711345,19.232941,0.128624,-0.169191,-0.273392,7.436000,13.388394

-2.214647,0.801268,11.477592,19.221176,0.129423,-0.139614,-0.236886,7.436000,13.388394

-3.294801,2.690938,8.059899,19.212351,0.212027,-0.168392,-0.288314,7.440000,13.388394

-2.444569,-0.896801,9.544811,19.227058,0.133953,-0.108171,-0.187324,7.436000,13.388394

-2.902018,-1.873969,10.593830,19.212351,0.076930,-0.143877,-0.025582,7.432000,13.388394

-2.815797,1.910162,10.232183,19.218235,0.101978,-0.169191,0.169202,7.432000,13.388394

-3.620524,2.523287,11.192585,19.235882,0.236541,-0.144676,0.317622,7.424000,13.388394

-1.958380,-1.045292,7.827582,19.218235,0.254128,-0.135350,0.567031,7.424000,13.388394

-2.870883,3.407049,9.132869,19.194704,-0.115989,-0.191041,0.823368,7.428000,13.388394

-1.591942,2.061048,7.451564,19.212351,0.253861,-0.056744,0.904372,7.416000,13.388394

-1.694928,2.647828,8.754455,19.203527,0.029500,-0.213424,0.835359,7.428000,13.388394

-0.624354,1.091065,8.479028,19.227058,-0.037382,-0.139614,0.631781,7.416000,14.903014

-1.282985,5.260795,9.051437,19.203527,0.155004,0.092742,0.365052,7.428000,14.903014

-0.329767,1.891002,8.811935,19.209410,-0.061097,-0.083656,0.009591,7.428000,14.903014

1.528768,5.109908,9.578342,19.212351,-0.218310,0.080484,-0.460449,7.436000,14.903014

3.071161,3.871683,9.061018,19.188822,-0.093872,0.115125,-0.565701,7.436000,14.903014

1.603014,3.450159,9.341235,19.194704,-0.073888,0.228638,-0.557174,7.444000,14.903014

-2.092501,5.538617,9.650192,19.203527,-0.055502,0.249688,-0.527331,7.436000,14.903014

-3.673214,5.256004,7.164162,19.200586,-0.059765,0.040249,-0.540387,7.452000,14.903014

-2.506840,1.059930,7.413244,19.209410,0.039359,-0.100444,-0.554243,7.452000,14.903014

-5.972433,3.488480,10.912368,19.197645,-0.127979,0.039183,-0.583554,7.464000,14.903014

-3.440897,2.283785,9.264594,19.197645,0.253062,-0.182248,-0.660295,7.472000,14.903014

2.637662,-2.527809,7.406059,19.197645,0.057478,-0.205696,-0.810580,7.460000,14.903014

-5.253927,-0.161530,16.574194,19.200586,-0.169814,0.042114,-0.609934,7.452000,14.903014

1.420992,1.895792,9.784313,19.191763,0.164330,-0.092183,-0.567300,7.444000,14.903014

-1.254244,3.074141,8.512558,19.197645,0.047353,-0.132686,-0.525465,7.436000,14.903014

-0.336952,5.557777,8.529324,19.182940,0.156603,-0.268581,-0.199315,7.440000,14.903014

-0.502208,1.852681,8.220366,19.188822,0.123295,-0.234474,-0.057557,7.456000,14.903014

-3.840866,3.339988,10.706396,19.212351,0.103843,-0.111102,-0.006396,7.456000,14.903014

-3.196605,4.568634,8.689790,19.185881,0.229613,-0.262986,0.014921,7.464000,14.903014

-0.935707,0.940179,8.804750,19.185881,0.158468,-0.336796,0.063683,7.456000,14.903014

-1.668583,0.303104,8.395202,19.174116,0.108906,-0.268581,0.039169,7.460000,14.903014

-2.705626,2.305340,8.519743,19.159410,0.031365,-0.182780,0.120973,7.452000,14.903014

-1.385971,2.710098,8.289822,19.188822,0.006051,-0.231277,0.211303,7.460000,14.903014

-2.082921,3.107671,10.854887,19.174116,0.117965,-0.103641,0.072210,7.460000,14.903014

-2.058971,2.887330,9.875324,19.191763,0.142746,-0.220085,0.025579,7.464000,14.903014

-0.988397,4.262071,7.801237,19.177057,0.042290,-0.222483,0.060219,7.464000,14.903014

-0.305817,4.777000,7.612031,19.159410,0.070002,-0.163062,0.069812,7.464000,14.903014

-0.075895,3.842942,9.118498,19.168234,-0.063229,-0.090052,0.055956,7.472000,14.903014

-0.020809,5.133858,9.987890,19.177057,0.022838,0.014402,0.039435,7.480000,14.903014

1.356327,2.690938,10.725556,19.156469,0.033497,-0.029298,-0.000001,7.480000,14.903014

1.976637,2.707703,8.023974,19.171175,-0.029388,-0.024235,-0.015723,7.488000,16.902372

0.534835,2.096973,8.328141,19.179998,-0.028855,0.051440,-0.057557,7.480000,16.902372

0.496515,1.222791,10.541140,19.174116,-0.076819,0.113792,-0.173468,7.484000,16.902372

0.714462,1.047955,9.765154,19.174116,-0.137039,0.041847,-0.329882,7.480000,16.902372

-0.025599,4.357872,9.005932,19.156469,0.065472,0.157759,-0.469242,7.476000,16.902372

1.215021,1.481453,9.276569,19.168234,0.127825,0.075955,-0.521735,7.480000,16.902372

0.300123,2.734049,10.014235,19.174116,-0.077085,0.125250,-0.498819,7.480000,16.902372

-0.257916,2.408326,9.489726,19.159410,0.049751,0.119654,-0.578225,7.480000,16.902372

-1.235084,2.693333,8.301796,19.159410,-0.009137,0.108197,-0.702396,7.480000,16.902372

-2.511630,3.445369,8.632309,19.182940,0.062275,0.038650,-0.796724,7.480000,16.902372

-1.788334,1.644315,9.087363,19.165293,0.044422,-0.046885,-0.672020,7.484000,16.902372

-2.444569,2.832244,9.834609,19.168234,-0.150629,-0.094581,-0.489226,7.480000,16.902372

-1.977540,3.634576,10.059741,19.168234,0.123828,-0.116431,-0.278721,7.484000,16.902372

-1.306935,2.461016,10.260922,19.171175,0.200569,-0.102575,0.014654,7.492000,16.902372

-2.449359,4.101605,6.208549,19.144705,0.112636,-0.149739,0.319487,7.488000,16.902372

-2.621801,3.210657,8.316167,19.171175,-0.009937,-0.341592,0.612063,7.496000,16.902372

-3.340307,2.913675,10.100456,19.138823,0.149674,-0.296027,0.783398,7.492000,16.902372

-3.400182,2.923255,12.265553,19.141764,0.177653,-0.304021,0.935282,7.496000,16.902372

-5.407208,2.298155,8.043135,19.150587,0.151273,-0.360777,0.856676,7.496000,30.073310

-4.468361,3.591465,6.694738,19.135881,0.204566,-0.440716,0.888385,7.500000,2516.006445

-2.846932,0.123477,8.047924,19.141764,0.066538,-0.434321,0.966458,7.496000,2516.006445

-2.367929,-0.008249,9.880115,19.132940,-0.111192,-0.203565,0.984045,7.500000,2516.006445

-0.693810,1.685030,10.397439,19.138823,-0.020062,-0.161730,1.090896,7.500000,2377.712289

-0.799191,0.556976,8.392807,19.129999,0.137684,-0.138548,1.081836,7.500000,2399.073929

0.070201,-0.731545,11.970966,19.144705,-0.158090,-0.161996,1.181227,7.500000,2361.537286

-0.085475,7.512113,10.749507,19.132940,0.166728,0.069559,1.094360,7.508000,2074.681004

1.797010,0.659962,9.482541,19.132940,0.336198,-0.035160,0.980048,7.516000,2417.451224

-0.126190,1.728140,9.082573,19.141764,0.265852,0.064497,0.606734,7.508000,2430.143325

0.604291,1.879027,7.686276,19.124117,-0.000344,0.062631,0.266728,7.512000,2376.898242

1.100060,0.032467,10.644126,19.124117,-0.022460,0.280065,0.079671,7.508000,2389.167216

3.114271,4.630904,8.519743,19.141764,-0.006739,0.241961,-0.086335,7.504000,2414.508619

4.692589,6.293048,7.379714,19.132940,-0.003541,0.350145,-0.164142,7.504000,2303.556659

2.422111,0.700677,6.170228,19.138823,0.307154,0.336022,-0.067416,7.500000,2273.757914

0.527650,-0.436957,10.366303,19.141764,-0.031254,0.357073,-0.248611,7.496000,2396.176031

-0.677045,4.326737,10.347143,19.144705,0.183249,0.443673,-0.467110,7.516000,1232.106479

-0.820746,4.518338,5.878036,19.129999,-0.022993,0.418625,-0.624856,7.504000,2352.335925

-0.334557,1.737720,6.745033,19.127058,-0.176742,0.321367,-0.859876,7.504000,2360.333166

1.531163,4.008199,11.293176,19.138823,-0.363799,0.292322,-1.129536,7.516000,2355.927946

2.481986,3.613021,9.975915,19.115294,0.037494,0.323232,-1.230791,7.508000,2310.071368

0.451009,-0.587843,9.422666,19.138823,-0.087211,0.317903,-1.354697,7.512000,2294.421618

0.036671,4.535103,9.710068,19.127058,-0.044843,0.243027,-1.517239,7.516000,2392.872593

-0.315397,3.404654,9.001143,19.135881,0.007650,0.258748,-1.479401,7.512000,2304.321126

1.265316,0.662357,9.755573,19.127058,-0.008071,0.093008,-1.401860,7.504000,2286.487730

-0.521369,-0.508808,10.569880,19.124117,-0.034185,0.022396,-1.244914,7.504000,2251.636044

-0.030389,3.450159,9.827424,19.135881,-0.044843,-0.048750,-1.033343,7.508000,2246.172690

-1.060248,1.359308,10.019026,19.135881,0.135552,-0.070333,-0.830565,7.504000,2263.749498

-4.118688,2.511312,7.671906,19.129999,0.167261,-0.135883,-0.551046,7.512000,2371.620707

-2.576295,-0.817765,9.202324,19.132940,0.111837,-0.276309,-0.141226,7.508000,1115.418050

-5.330568,7.102564,10.651311,19.121176,0.085723,0.018932,0.147619,7.516000,2356.327765

0.043856,-1.356645,8.395202,19.115294,0.080661,-0.325871,0.328813,7.512000,1997.675150

-5.946088,3.474110,9.336445,19.138823,0.084391,-0.003451,0.507343,7.512000,2696.279543

-2.181117,0.451595,8.744875,19.121176,0.134486,-0.203831,0.628584,7.516000,2537.153237

-4.109108,4.197406,9.528047,19.115294,-0.171413,-0.102575,0.762881,7.512000,1160.732213

-5.629945,2.413116,10.402228,19.118235,-0.089609,0.214515,0.755953,7.508000,1577.577759

-2.899623,3.167547,8.797565,19.127058,0.043622,0.005875,0.626185,7.520000,2703.629274

-4.942575,0.509075,8.931686,19.112352,-0.118920,-0.106039,0.411683,7.512000,2155.516821

-3.922296,1.780831,9.695698,19.132940,0.007384,0.027725,0.373046,7.520000,2375.678230

-2.181117,0.245623,10.066926,19.121176,-0.136240,-0.183580,0.155613,7.520000,1109.003986

-1.057853,3.112462,9.846584,19.127058,-0.009137,-0.063405,0.154813,7.520000,929.378184

-0.873436,1.464688,8.404782,19.121176,0.054014,-0.101243,-0.917165,7.524000,1508.346670

-1.941615,3.933954,8.579618,19.124117,0.250131,-0.118829,-0.696268,7.528000,1508.346670

-0.025599,4.994947,8.469448,19.118235,0.439319,0.016800,-0.551579,7.524000,1508.346670

-0.938102,3.763907,8.754455,19.115294,-0.137572,-0.283770,-0.460449,7.524000,1508.346670

-1.165629,3.828573,9.702883,19.127058,-0.043244,-0.214756,-0.239551,7.536000,1508.346670

0.074991,4.856036,8.249105,19.118235,0.042823,-0.200633,-0.119643,7.536000,1508.346670

3.078346,5.102723,9.379556,19.135881,0.014844,-0.274177,-0.037040,7.536000,1508.346670

0.340838,1.464688,10.871653,19.129999,-0.004874,-0.108970,-0.003465,7.536000,1508.346670

-0.837511,0.118687,9.695698,19.112352,-0.146099,-0.061540,0.000798,7.532000,1508.346670

-2.636171,2.425091,8.344907,19.109411,0.002854,0.026926,0.035971,7.540000,1508.346670

-2.252968,1.340147,8.320956,19.127058,0.005785,-0.155601,0.134296,7.540000,31.407400

-1.352440,0.990474,9.432246,19.127058,0.031898,-0.167059,0.321619,7.544000,31.407400

-1.862579,1.218001,9.422666,19.124117,-0.021661,-0.042621,0.463110,7.540000,31.407400

-1.239874,1.938902,8.510163,19.106470,0.129690,0.046644,0.567031,7.540000,1071.769061

-0.712970,3.114857,8.622729,19.094706,0.222419,-0.020771,0.624587,7.540000,1071.769061

-1.254244,0.104317,8.838281,19.115294,0.084125,-0.000254,0.580354,7.540000,1071.769061

-1.594337,2.197564,10.430969,19.106470,-0.130910,0.055171,0.534789,7.536000,1071.769061

-1.100963,4.379427,9.633428,19.100588,0.116367,0.148965,0.518801,7.540000,1071.769061

0.046251,2.008358,8.438313,19.094706,0.058278,-0.084189,0.464443,7.544000,1071.769061

-1.807494,2.645433,9.142448,19.100588,-0.049906,0.179608,0.491089,7.536000,1071.769061

-3.409762,2.135294,7.899433,19.106470,0.004719,0.245158,0.437797,7.536000,1071.769061

-4.039652,1.160521,9.420271,19.103529,-0.125581,0.191599,0.329879,7.544000,1071.769061

-2.856513,3.866893,8.914922,19.100588,-0.101333,0.225973,0.204908,7.540000,1071.769061

-2.506840,3.910003,10.102851,19.094706,-0.020329,0.180674,0.070611,7.540000,1071.769061

-1.697323,3.507640,9.049043,19.091763,-0.056834,0.155360,-0.130568,7.544000,1071.769061

-1.088988,3.284903,9.417875,19.109411,0.009515,0.095939,-0.345870,7.544000,1071.769061

-0.595614,1.045560,9.484936,19.109411,-0.046442,0.012004,-0.515606,7.544000,1071.769061

-0.468678,1.926927,10.490845,19.106470,-0.081082,0.033054,-0.638978,7.544000,1071.769061

0.024696,2.008358,10.909973,19.094706,0.064406,-0.006116,-0.689606,7.548000,1071.769061

0.853373,1.390443,8.953242,19.085880,0.042024,-0.067935,-0.789530,7.536000,1071.769061

-0.966842,0.489915,9.956755,19.088821,0.076131,-0.060208,-0.903576,7.540000,1071.769061

-0.976422,2.001173,8.210786,19.079998,0.010315,-0.079393,-1.075710,7.548000,1071.769061

0.139657,1.277877,8.443103,19.091763,0.030832,-0.154535,-1.166841,7.532000,1071.769061

-0.356112,2.688543,10.624966,19.088821,0.051883,-0.086854,-1.068782,7.540000,1071.769061

-0.787216,4.372242,8.785590,19.085880,0.151540,-0.100444,-0.909171,7.544000,1071.769061

0.051041,2.846615,8.543694,19.088821,0.087589,-0.236339,-0.761551,7.540000,1071.769061

0.527650,4.403378,9.573552,19.094706,0.062275,-0.258722,-0.560105,7.544000,1071.769061

-0.504603,4.616534,9.001143,19.077057,0.115301,-0.208361,-0.358393,7.552000,1071.769061

-1.733248,2.808294,9.554392,19.068233,0.114235,-0.213157,-0.105254,7.548000,1071.769061

-1.472191,4.156691,9.132869,19.065292,0.178985,-0.281905,0.148152,7.552000,1071.769061

-1.050668,2.731653,7.022856,19.077057,0.218688,-0.249929,0.294173,7.556000,20.048540

-1.388366,0.600086,9.245434,19.094706,-0.149030,-0.241669,0.374911,7.548000,20.048540

-1.706903,3.653736,9.118498,19.074116,0.048685,-0.014643,0.494287,7.552000,20.048540

-1.086593,2.444251,9.389135,19.071175,0.076397,-0.084456,0.436731,7.552000,20.048540

-0.301027,2.810689,8.962822,19.079998,0.026302,-0.119629,0.285114,7.556000,20.048540

-1.179999,2.666988,10.138777,19.077057,-0.012601,-0.101243,0.299769,7.552000,20.048540

-1.493746,2.523287,9.362790,19.094706,0.067604,-0.071133,0.273123,7.552000,20.048540

-0.574059,1.083880,8.785590,19.068233,0.040158,-0.078594,0.266461,7.556000,20.048540

-0.171696,0.918624,9.221484,19.074116,-0.047774,-0.032762,0.261931,7.556000,20.048540

-0.906967,2.391561,9.777128,19.050587,0.073999,0.040782,0.177196,7.560000,20.048540

-0.897387,2.370006,9.149633,19.074116,0.063874,0.088478,0.120973,7.552000,20.048540

-0.722550,2.202354,9.207114,19.062351,-0.035783,0.061033,0.082602,7.544000,20.048540

-1.247059,2.889725,9.609477,19.097647,0.010315,0.066095,0.092994,7.548000,20.048540

-1.491351,2.714888,9.760364,19.074116,-0.003808,0.041048,0.113778,7.552000,20.048540

-2.020651,2.666988,8.270661,19.068233,0.168860,0.034919,0.216100,7.556000,20.048540

-4.372560,1.311407,9.082573,19.068233,-0.077618,-0.046618,0.373046,7.556000,20.048540

-3.579808,3.184312,9.930409,19.059410,0.007384,0.040249,0.484960,7.548000,20.048540

-3.187025,2.892120,8.275451,19.065292,-0.010203,0.055703,0.520133,7.552000,20.048540

-2.820587,2.669383,9.817844,19.065292,-0.109061,-0.035160,0.457248,7.556000,20.048540

-1.644633,1.898187,9.350815,19.077057,-0.032852,-0.035693,0.362121,7.556000,20.048540

-3.155890,1.958062,10.390254,19.056469,-0.082681,-0.058609,0.262198,7.560000,20.048540

-0.883016,2.298155,8.534113,19.056469,0.194707,-0.072465,0.137760,7.556000,20.048540

-1.505722,-0.324391,8.514953,19.068233,-0.056035,-0.171323,0.026112,7.560000,20.048540

-1.261430,2.130504,10.275292,19.079998,-0.034185,-0.136416,-0.081272,7.556000,20.048540

0.520465,3.577096,9.259805,19.056469,0.157402,-0.026367,-0.245946,7.568000,20.048540

-1.029113,-0.515993,8.349697,19.059410,-0.105330,-0.067669,-0.211839,7.560000,20.048540

-1.000372,3.883658,11.008168,19.068233,-0.124249,0.052772,-0.200115,7.564000,20.048540

0.501305,2.547237,9.283754,19.056469,0.195506,-0.010646,-0.302170,7.560000,20.048540

-0.317792,1.201236,8.553273,19.059410,-0.014733,-0.096980,-0.409021,7.564000,20.048540

-1.936825,3.373519,8.871811,19.065292,-0.018996,-0.116165,-0.414084,7.560000,20.048540

0.209112,2.549632,8.799960,19.050587,0.121163,-0.177451,-0.366654,7.556000,20.048540

0.575550,1.079090,8.153305,19.044704,-0.066693,-0.210759,-0.250743,7.556000,20.048540

0.527650,2.987921,10.452524,19.056469,0.031365,-0.158799,-0.160145,7.552000,20.048540

0.027091,3.227422,9.621452,19.044704,0.063607,-0.151338,-0.081006,7.560000,20.048540

-0.859066,2.631063,8.962822,19.038822,0.037760,-0.135350,0.039702,7.556000,20.048540

-0.880621,4.714730,9.056228,19.038822,-0.039247,-0.055145,0.098590,7.564000,20.048540

-0.008834,2.966366,8.292216,19.038822,0.094783,-0.066603,0.156146,7.564000,20.048540

-1.098568,2.032308,8.859837,19.041763,-0.117321,-0.068468,0.142023,7.560000,20.048540

0.982704,3.991434,9.439431,19.056469,-0.021394,-0.062872,0.138293,7.560000,20.048540

0.185162,1.864656,9.911250,19.047646,-0.069091,0.010938,0.205441,7.564000,13.314680

-0.552504,3.157967,10.203442,19.059410,-0.059765,0.041847,0.187855,7.560000,981.192753

-1.254244,2.480176,8.869416,19.056469,0.047619,0.064497,0.239282,7.564000,2462.901626

-1.220714,2.008358,10.143566,19.065292,-0.107728,-0.023169,0.294440,7.564000,2526.535664

-0.305817,2.781949,8.275451,19.059410,0.064939,-0.020505,0.386369,7.560000,2247.990842

0.144447,2.135294,10.153147,19.044704,0.159267,0.001345,0.521199,7.568000,2430.143325

-0.121400,1.900582,7.075546,19.041763,0.113702,0.038650,0.599006,7.564000,2509.186840

-2.269733,0.408485,8.984377,19.047646,-0.076286,0.118855,0.674682,7.564000,2461.591777

-1.285380,3.524405,9.283754,19.032940,-0.041646,0.216380,0.730905,7.564000,2430.994240

0.357604,1.862262,8.055109,19.059410,-0.008871,0.187336,0.666155,7.564000,2749.126714

0.015116,2.928045,8.754455,19.059410,-0.075220,0.171082,0.545181,7.560000,2425.474102

-1.685348,2.923255,10.239367,19.032940,0.046820,0.184405,0.401824,7.564000,2112.878716

-1.697323,1.469478,8.926897,19.053528,0.092918,0.146034,0.261931,7.564000,1244.808539

-2.310448,3.062166,9.729228,19.044704,-0.188999,0.140172,0.123904,7.568000,2700.474365

-0.111820,3.289693,8.665839,19.035881,0.084924,0.229437,0.066614,7.576000,2700.474365

0.635426,1.699400,9.669353,19.032940,0.027102,0.180408,-0.213171,7.572000,1739.208393

-1.429081,3.759117,9.904064,19.059410,-0.001943,0.132445,-0.332014,7.576000,1739.208393

-1.608707,3.129227,8.505373,19.038822,0.034829,0.083416,-0.451922,7.576000,1739.208393

-0.286657,1.546119,9.276569,19.047646,-0.000610,-0.060208,-0.643775,7.572000,161.478278

0.254618,2.267020,10.483660,19.041763,0.010315,-0.008780,-0.804718,7.576000,161.478278

0.070201,3.512430,7.827582,19.053528,0.089720,-0.045019,-0.858810,7.572000,236.576182

0.865348,1.227581,9.985496,19.041763,-0.083747,-0.059408,-0.803386,7.568000,1676.223983

0.357604,2.209539,11.954202,19.056469,0.001788,-0.092450,-0.863340,7.568000,2340.836079

0.125287,6.206827,7.463539,19.035881,0.168327,-0.135350,-0.855346,7.572000,2573.834940

-0.684230,1.993988,7.207272,19.041763,0.188312,-0.337862,-0.792727,7.576000,2432.271671

0.336049,0.952154,9.602292,19.053528,0.188045,-0.459102,-0.552112,7.568000,2430.568783

-1.062643,2.722074,9.245434,19.047646,0.115034,-0.442048,-0.247012,7.568000,2434.403831

-1.041088,3.217843,9.125683,19.053528,0.148076,-0.374633,0.042899,7.572000,2472.990133

-2.535580,2.791529,8.088639,19.059410,0.211227,-0.473758,0.265662,7.576000,2449.865854

-1.462611,4.535103,6.701923,19.027058,0.091053,-0.520655,0.438862,7.576000,2466.401266

-1.548832,1.519774,12.078742,19.041763,0.176587,-0.465231,0.761815,7.576000,2490.733479

-1.898505,4.149505,9.106524,19.032940,0.178452,-0.414336,0.973919,7.572000,2488.947745

-1.036298,4.511153,7.319838,19.059410,0.096116,-0.407675,1.114345,7.576000,2550.668497

-1.175209,1.366493,8.548483,19.035881,0.084125,-0.423130,1.454884,7.580000,2573.834940

-2.286498,-0.281281,10.603411,19.032940,-0.064561,-0.378897,1.627019,7.580000,2582.451085

-0.851881,-0.041779,7.128236,19.053528,0.134486,-0.338128,1.484461,7.584000,2614.543232

-1.982330,-1.567406,9.722043,19.056469,-0.129578,-0.224615,1.550011,7.580000,2594.029328

-1.067433,3.387889,10.498030,19.050587,-0.025924,-0.017041,1.633680,7.588000,2645.929814

0.374369,2.381981,10.395043,19.053528,0.246667,0.057569,1.586250,7.596000,2721.646371

-0.540529,0.918624,10.979428,19.038822,0.244002,0.003210,1.609166,7.596000,2763.901183

-0.588429,1.845496,7.686276,19.041763,0.029233,0.201458,1.591579,7.592000,2739.364716

-1.972750,2.147269,11.384187,19.059410,0.087589,0.337088,1.609698,7.604000,2746.408068

1.092875,2.731653,12.162568,19.038822,0.169926,0.187869,1.564666,7.600000,2712.078033

1.004259,1.426368,11.654824,19.059410,0.330603,0.291523,1.410118,7.600000,2767.757631

-2.188302,1.074300,10.921947,19.035881,0.206431,0.373327,1.087965,7.604000,2777.167906

1.025814,3.814203,8.423943,19.047646,0.119298,0.349612,0.925956,7.600000,2772.731539

2.187399,4.652460,8.625124,19.047646,0.299959,0.400506,0.833760,7.604000,2766.103475

2.216139,0.341424,9.367580,19.041763,0.174722,0.354941,0.765013,7.608000,2772.177894

-0.468678,2.405931,9.264594,19.044704,0.153405,0.519881,0.701861,7.608000,2772.731539

-2.569110,0.683912,11.573393,19.044704,0.136884,0.534537,0.686939,7.608000,2774.948028

-0.138165,2.666988,10.531560,19.044704,0.131022,0.471385,0.686406,7.604000,2668.301280

1.267711,2.159244,8.031159,19.024117,0.135818,0.484975,0.627784,7.600000,2711.019051

1.193465,0.849168,10.531560,19.038822,0.064406,0.507624,0.542516,7.600000,2574.789465

0.819842,0.753367,11.350657,19.047646,0.102777,0.603550,0.456982,7.600000,2658.594583

-1.872159,1.103040,10.045371,19.050587,-0.004607,0.779416,0.307230,7.600000,2645.929814

-0.293842,0.674332,9.013118,19.044704,-0.077085,0.474849,-0.004265,7.600000,2592.092523

-0.164511,3.131622,8.871811,19.062351,0.059610,0.691483,-0.134831,7.600000,2600.831558

1.483263,0.077972,8.814330,19.044704,0.145678,0.557452,-0.351465,7.592000,2570.975605

0.676141,0.259993,8.907737,19.056469,-0.206053,0.548659,-0.605671,7.588000,2597.425994

0.762362,4.477623,9.250224,19.029999,-0.075753,0.629664,-0.716785,7.592000,2553.013385

2.338285,0.806058,9.561577,19.062351,0.064673,0.430350,-0.845220,7.580000,1714.301135

1.768270,2.887330,9.892090,19.047646,-0.171146,0.445538,-0.959000,7.584000,946.611216

1.476078,3.356754,9.796288,19.065292,0.054547,0.540932,-0.937949,7.584000,946.611216

0.759967,1.826336,7.829977,19.082939,-0.005407,0.437811,-0.956602,7.588000,286.288255

-0.042365,1.519774,9.147239,19.065292,-0.142102,0.260347,-0.850017,7.584000,698.799217

-0.339347,1.555699,9.032277,19.065292,-0.253750,0.254484,-0.801254,7.584000,698.799217

-0.504603,2.549632,10.083691,19.062351,-0.219376,0.305112,-0.878795,7.584000,698.799217

0.515675,2.832244,10.272898,19.053528,-0.050705,0.261412,-0.887321,7.592000,122.035765

0.110917,3.014266,9.209509,19.065292,-0.001410,0.209719,-0.861741,7.592000,122.035765

-0.514183,2.928045,9.032277,19.085880,0.024171,0.139106,-0.743965,7.584000,122.035765

-0.736920,1.950877,9.916039,19.077057,-0.048307,-0.023702,-0.620859,7.588000,122.035765

-0.904572,1.443133,11.753019,19.077057,0.047886,-0.063672,-0.531327,7.584000,122.035765

-0.442333,1.541329,10.280083,19.065292,0.154204,-0.053546,-0.481233,7.592000,122.035765

-0.679440,2.877750,3.688988,19.047646,0.022305,-0.041822,-0.323487,7.584000,122.035765

-0.689020,1.941297,7.674301,19.062351,-0.308374,-0.079127,-0.153484,7.584000,122.035765

-1.836234,2.144874,11.810500,19.062351,0.269316,0.117523,0.131898,7.584000,122.035765

-2.935548,-0.983022,9.860954,19.091763,-0.050705,-0.027433,0.032507,7.588000,122.035765

-2.164352,2.619088,9.468171,19.062351,-0.019529,0.058102,0.017052,7.584000,122.035765

-1.144074,3.280113,7.961703,19.068233,0.159800,0.093275,0.019983,7.588000,122.035765

-1.793124,0.396510,6.962980,19.068233,0.075331,-0.055145,-0.023450,7.580000,122.035765

-2.442174,3.203472,8.809541,19.079998,-0.167149,0.003477,-0.005064,7.584000,122.035765

-1.484166,3.272928,10.660891,19.074116,-0.092540,0.079952,-0.054360,7.588000,122.035765

-1.251849,1.814361,10.004656,19.065292,0.047886,-0.013843,-0.166807,7.580000,122.035765

-0.748895,1.320987,9.765154,19.071175,0.022305,0.007474,-0.217435,7.584000,122.035765

-0.633934,2.657408,8.028764,19.071175,0.021772,-0.038624,-0.250210,7.588000,30.989921

-1.754804,1.505404,8.701765,19.074116,0.024171,-0.143344,-0.306966,7.588000,30.989921

-2.698441,0.391720,10.620175,19.074116,-0.098669,-0.067402,-0.272859,7.588000,30.989921

-2.494864,0.703072,11.084809,19.068233,-0.098935,-0.114566,-0.195851,7.592000,30.989921

-0.782426,5.512271,8.907737,19.074116,0.348455,0.010938,-0.110050,7.600000,30.989921

-1.587152,-0.590238,6.972560,19.071175,0.135019,-0.266450,-0.055958,7.588000,30.989921

-4.755763,1.229976,10.308823,19.059410,-0.119719,-0.102842,0.065016,7.596000,30.989921

-2.133217,1.476663,10.318403,19.059410,-0.018197,-0.118297,0.162008,7.592000,30.989921

-1.994306,2.144874,8.589199,19.038822,0.128890,-0.094048,0.156945,7.584000,30.989921

-0.485443,3.165152,3.921305,19.050587,0.045488,-0.138814,0.212369,7.584000,30.989921

0.161212,-2.465539,13.568444,19.062351,-0.519946,-0.271779,0.374112,7.576000,30.989921

-1.888925,6.537340,12.464340,19.059410,0.407344,0.367465,0.540918,7.588000,30.989921

1.076110,1.673055,6.543852,19.056469,-0.011535,-0.266983,0.363453,7.588000,30.989921

-0.734525,5.392520,5.633744,19.059410,-0.150362,0.113526,0.513205,7.588000,30.989921

-1.812284,2.123319,9.525652,19.068233,-0.052304,0.288592,0.568097,7.584000,30.989921

-0.236361,2.456226,10.078901,19.047646,-0.021927,-0.007182,0.285646,7.588000,30.989921

1.574274,3.095696,10.986613,19.062351,-0.135174,-0.047950,0.075141,7.588000,30.989921

2.316730,2.561607,9.010722,19.059410,0.048952,0.163088,-0.191854,7.588000,30.989921

-1.472191,1.323382,9.425060,19.044704,-0.066160,0.268873,-0.439131,7.592000,30.989921

0.934803,4.412958,9.765154,19.053528,-0.084546,0.092475,-0.478568,7.592000,30.989921

1.492843,4.348292,6.706713,19.041763,0.036694,0.138307,-0.599808,7.584000,30.989921

1.665284,-2.719411,15.975439,19.047646,-0.089875,0.074889,-0.673352,7.584000,30.989921

0.474960,3.383099,14.641414,19.032940,0.063074,0.469520,-0.896115,7.592000,30.989921

-1.852999,1.591624,8.550879,19.041763,0.487815,0.182540,-1.063453,7.600000,30.989921

-2.011071,4.242911,3.308180,19.035881,0.280774,0.007207,-0.908372,7.608000,30.989921

0.700091,1.153336,6.390571,19.029999,-0.209517,-0.138548,-0.737836,7.600000,30.989921

0.074991,-1.476396,9.099339,19.044704,0.125693,0.118589,-0.698133,7.596000,20.226121

-1.201554,2.552027,9.563972,19.056469,0.043356,0.163887,-0.589416,7.596000,20.226121

0.312098,2.041888,7.511440,19.053528,0.095583,0.127915,-0.591015,7.592000,20.226121

-0.854276,-0.535153,8.510163,19.038822,-0.138371,-0.010646,-0.538522,7.592000,20.226121

-1.462611,4.618929,9.963940,19.032940,0.236008,0.160956,-0.499618,7.584000,20.226121

0.058226,3.984249,11.247670,19.053528,0.032697,0.065563,-0.452721,7.592000,20.226121

-2.387089,2.559212,8.895761,19.027058,0.291965,0.207587,-0.410087,7.596000,20.226121

-6.568793,-3.835490,15.894009,19.032940,-0.206852,0.009339,-0.428207,7.600000,20.226121

0.637821,8.288099,4.220683,19.041763,0.847273,0.188402,-0.433802,7.604000,20.226121

-5.732931,1.811966,9.798684,19.027058,-0.555385,-0.163862,-0.233955,7.604000,20.226121

-0.667465,5.950560,5.411007,19.041763,0.321543,-0.065004,-0.297906,7.592000,20.226121

-5.560490,-5.737135,12.636782,19.018234,-0.391244,-0.386358,-0.372516,7.592000,20.226121

-1.153654,3.241793,10.387858,19.038822,0.102511,0.062898,-0.286981,7.592000,20.226121

0.204322,-0.681249,9.722043,19.027058,-0.111459,-0.099644,-0.341873,7.584000,20.226121

-0.844696,3.596256,9.688513,19.021175,-0.030987,-0.064738,-0.432470,7.588000,20.226121

-2.403854,2.693333,10.943503,19.012352,0.043089,-0.085255,-0.593680,7.592000,20.226121

-0.528554,3.749537,7.236012,19.024117,0.310085,-0.245932,-0.715453,7.592000,20.226121

0.465380,0.504285,9.619058,19.024117,0.127825,-0.237938,-0.717585,7.588000,20.226121

-1.285380,1.749696,9.614267,19.024117,0.147276,-0.223549,-0.713055,7.592000,20.226121

-2.090106,2.724468,9.396320,19.029999,0.115034,-0.115898,-0.761285,7.596000,27.069550

0.601896,4.693175,6.871969,19.027058,0.147809,-0.286701,-0.545450,7.596000,717.095626

1.138380,1.962852,10.565090,19.021175,0.119831,-0.527316,-0.528130,7.596000,2350.743003

-0.463888,0.427645,11.769785,19.029999,0.374835,-0.301090,-0.430338,7.592000,1660.985600

-1.836234,0.343819,11.975757,19.027058,0.012979,-0.297093,-0.262200,7.592000,345.418892

-0.207621,5.952955,8.572433,19.029999,0.281307,-0.196903,-0.129769,7.600000,2627.902970

-2.367929,6.510994,7.616820,19.009411,0.301558,-0.206762,0.033573,7.596000,491.134290

-1.098568,1.012030,6.287585,19.021175,0.113702,-0.510529,0.093793,7.596000,2025.651295

-1.608707,0.921019,9.944780,19.021175,-0.120252,-0.369837,0.057288,7.600000,1137.158216

-1.081803,4.796161,9.178373,19.024117,0.145411,-0.247264,0.035971,7.588000,2392.048164

1.181490,1.847891,9.494516,19.009411,0.177653,-0.267516,0.156412,7.596000,2449.865854

-1.084198,3.548355,11.432087,19.012352,0.005252,-0.260854,0.280850,7.600000,2385.063503

-0.193251,2.607113,8.330537,19.027058,0.270915,-0.170523,0.338140,7.604000,2471.229613

-0.964447,-0.286071,9.609477,19.015293,-0.204987,-0.255791,0.338406,7.600000,2441.251616

-2.581085,1.203631,14.033078,19.032940,0.006318,-0.085522,0.445257,7.608000,2514.639600

-1.108148,3.244188,11.688354,19.012352,0.305022,-0.003451,0.433267,7.608000,2562.435737

-1.529672,3.565120,3.648273,19.029999,-0.066427,0.012004,0.481230,7.600000,2452.895118

-0.971632,-1.691947,10.529164,19.018234,0.148875,-0.085255,0.592345,7.592000,2452.895118

-0.808771,1.258717,12.416440,19.015293,-0.481042,-0.034627,0.552642,7.592000,2385.473281

1.739530,5.993670,6.991720,19.009411,0.565356,0.482043,0.378642,7.604000,2439.964862

-4.528236,-1.541061,11.278806,19.009411,-0.400571,-0.110303,0.038369,7.588000,2282.353718

1.011444,6.841507,10.572275,19.015293,0.105442,0.241961,0.011989,7.584000,2351.539253

2.786154,3.977064,6.711503,19.027058,0.209096,0.203590,-0.280053,7.592000,2440.393497

-1.812284,1.038375,5.305627,19.027058,-0.117587,0.132445,-0.515340,7.592000,2330.229735

-4.073183,1.996382,13.501384,19.041763,-0.227903,0.167085,-0.514540,7.600000,2374.865666

0.477355,2.429881,10.193862,19.015293,0.419601,0.242494,-0.732240,7.600000,2582.451085

-1.738038,2.106554,5.784631,19.024117,0.290633,-0.183313,-0.820706,7.600000,2490.733479

-0.966842,-1.538666,10.407019,19.032940,-0.182338,-0.330667,-0.450056,7.588000,2422.934919

-3.596574,1.206026,5.909172,19.009411,-0.092007,-0.418600,-0.279787,7.600000,2387.934492

-2.609826,2.341265,11.618898,19.012352,0.094517,-0.118563,0.026112,7.592000,2401.978819

-1.455426,0.094737,9.444221,19.021175,0.295696,-0.220352,0.219297,7.600000,2451.595863

-1.860184,0.065997,10.088481,19.018234,-0.153293,-0.291764,0.185457,7.584000,2393.697658

-2.032626,7.485767,8.237131,19.012352,0.234143,-0.156134,0.261132,7.596000,2469.032617

-1.987120,1.986803,8.974797,19.027058,0.279975,-0.409540,0.297371,7.596000,2390.812685

-3.462452,0.176168,8.771220,19.015293,0.097981,-0.461767,0.429270,7.600000,2433.124069

-0.986002,1.160521,12.864308,18.988823,0.185114,-0.499871,0.599273,7.600000,2616.513938

0.613871,2.463411,10.110036,19.015293,0.168593,-0.053813,0.866002,7.600000,2546.925829

-1.311725,2.523287,7.909013,19.012352,-0.024592,-0.141479,0.841487,7.600000,2167.630275

-1.627867,4.717125,6.699528,19.009411,0.183782,-0.014643,1.063450,7.596000,2421.244955

0.096547,2.781949,4.074587,19.006470,0.023638,-0.087387,1.012023,7.600000,2499.701135

0.599501,3.265743,12.907419,19.009411,-0.301180,-0.075396,0.983245,7.596000,2413.249834

2.580182,1.974827,9.882509,18.994705,0.374036,0.165220,0.904372,7.600000,2525.157165

-1.388366,-1.387780,11.365026,19.006470,0.034829,0.197728,0.459646,7.604000,2539.008892

-2.030231,6.235568,7.003695,18.994705,0.004452,0.308843,0.274988,7.608000,2577.657275

0.398319,3.426209,10.234577,19.018234,-0.136240,0.266209,0.005594,7.608000,2482.273703

3.372933,3.239398,10.160332,19.012352,0.032431,0.291523,-0.269661,7.600000,2472.990133

0.439034,1.476663,3.583608,18.991764,0.003120,0.516151,-0.369851,7.608000,2480.943301

-0.799191,3.672896,7.109076,18.997646,-0.314503,0.245691,-0.485230,7.600000,2559.129969

3.780087,10.266385,10.284873,19.006470,0.202168,0.530806,-0.654700,7.612000,2073.132153

1.667679,-2.367343,9.698093,19.006470,0.129956,-0.139880,-0.932620,7.596000,2473.871346

3.897443,0.025282,12.251184,19.000587,-0.274267,0.056503,-0.846819,7.592000,2297.458510

1.124010,5.574542,12.636782,19.003529,0.166728,0.441275,-0.822304,7.592000,2356.727585

-0.114215,0.830008,9.518467,18.982941,-0.111192,0.224641,-0.887854,7.596000,2312.764800

-0.722550,5.260795,9.111313,19.012352,-0.110393,0.167085,-0.856145,7.596000,2349.152412

1.308426,3.708822,9.156818,18.997646,-0.057100,0.253685,-0.753024,7.596000,2385.473281

-3.199000,0.298314,10.184282,18.991764,-0.536999,0.108463,-0.744498,7.588000,2340.047034

-4.262389,3.349569,11.566208,18.985882,-0.036583,0.185737,-0.900112,7.600000,2417.030428

-0.629144,3.636971,11.367421,18.988823,-0.040313,0.022396,-0.904108,7.600000,2458.976317

2.134708,4.391402,11.410532,18.994705,-0.066693,-0.125758,-0.881992,7.592000,2371.215802

-1.060248,3.179522,11.448853,18.985882,0.270116,-0.018906,-0.809248,7.604000,2402.394318

-5.138966,1.419183,6.136698,18.994705,-0.033918,-0.240869,-0.785000,7.600000,2481.830024

-2.001491,0.147428,12.313455,19.006470,0.028701,-0.215022,-0.604605,7.604000,2399.073929

-2.442174,1.067115,10.574670,18.988823,0.415338,-0.057810,-0.462580,7.616000,2617.500456

-4.887489,1.689820,4.041057,19.003529,0.265586,-0.084989,-0.466044,7.620000,2527.915434

-3.907926,1.119806,5.705595,18.994705,0.091852,-0.158532,-0.404225,7.612000,2538.080641

-2.149982,0.894674,8.476633,18.988823,-0.138371,-0.254992,-0.383974,7.612000,2501.051877

-2.722391,-1.792538,10.909973,19.009411,-0.076286,-0.341059,-0.478568,7.604000,2472.109555

-1.268615,-0.386662,11.990127,18.985882,0.173123,-0.280039,-0.476436,7.612000,2521.488868

-1.714088,5.026083,10.639336,19.000587,0.143546,-0.216088,-0.349067,7.616000,2501.502336

0.283358,6.053546,7.604846,19.000587,0.414272,-0.274444,-0.304035,7.604000,2489.393967

-1.041088,-1.711108,6.814489,19.000587,0.197105,-0.446312,-0.004531,7.608000,2405.724029

-2.825377,1.845496,5.197851,19.018234,-0.231100,-0.516125,0.189986,7.604000,2610.120214

-2.820587,-2.376923,12.893049,19.018234,0.177653,-0.137748,0.210238,7.600000,2775.502520

-1.948800,4.283627,6.658813,19.021175,0.220820,-0.474823,0.064216,7.600000,2411.154542

-0.399222,7.155255,9.532837,19.012352,0.029766,-0.441249,0.126568,7.604000,2386.703251

0.343234,2.678963,10.589040,18.982941,0.254394,-0.408474,0.265395,7.612000,2776.612565

0.359999,0.339029,6.967770,36.527058,0.121962,0.007740,-0.000268,7.604000,2777.167906

-1.651818,-2.647560,5.111630,19.000587,0.009249,-0.382894,-0.068749,7.604000,2776.057437

-0.890202,-0.408217,0.817360,36.527058,0.121962,0.007740,-0.000268,7.596000,2777.167906

-2.499655,0.173773,8.883786,18.991764,0.013246,0.499896,0.139359,7.600000,2776.612565

1.662889,3.797437,9.396320,35.768234,-0.014999,-0.129222,-0.137230,7.604000,2776.612565

-1.261430,2.228699,11.652429,18.968235,0.118232,0.557985,0.074608,7.612000,2777.167906

-1.237479,0.899464,8.124565,18.977058,0.109439,0.352809,0.133496,7.608000,2483.605799

-2.770292,0.008516,5.990602,18.971176,-0.171146,0.360537,0.195049,7.608000,2417.451224

-2.152377,0.307894,12.811619,18.965292,-0.190332,0.183339,0.066081,7.600000,2342.415653

-0.645909,1.651500,9.274175,18.965292,0.027635,0.327762,-0.083404,7.596000,2388.756167

-0.463888,2.128109,6.503137,18.962351,-0.013933,0.294720,-0.413018,7.608000,2369.597243

-0.102240,1.814361,8.902946,18.971176,-0.364598,0.260347,-0.615263,7.600000,2317.783204

1.734740,1.577254,9.621452,18.971176,0.162998,0.315238,-0.799389,7.600000,2294.042563

2.199374,1.462293,10.876443,18.977058,-0.374990,0.371195,-0.964063,7.596000,2616.021102

2.268829,6.031991,7.968888,18.977058,-0.081348,0.492169,-1.081306,7.600000,2494.760915

2.805314,3.747142,6.965375,18.962351,0.123028,0.389048,-1.189756,7.600000,2218.539581

-0.835116,2.281390,8.519743,18.956469,-0.230301,0.390913,-1.373616,7.600000,2205.852141

-0.229176,7.754010,8.443103,18.962351,0.082792,0.256883,-1.513242,7.608000,2387.524079

0.187557,-5.947897,10.672866,18.962351,-0.340616,0.061033,-1.486862,7.604000,1533.161019

-2.617011,3.320828,12.533796,18.950586,-0.238028,0.582233,-1.484997,7.604000,2397.417019

-2.820587,4.003409,9.326865,18.965292,0.089720,0.040249,-1.549481,7.612000,2402.810028

-1.908085,2.013148,11.060859,18.956469,0.077197,-0.054346,-1.568133,7.612000,2448.569777

0.086966,2.427486,10.155541,18.971176,0.004719,-0.041822,-1.468476,7.612000,2430.994240

-0.581244,1.713770,8.910131,18.965292,0.163531,-0.045019,-1.287548,7.620000,2480.057003

-2.676886,0.628826,10.629756,18.971176,-0.020329,-0.106039,-1.150853,7.620000,2491.627406

-1.479376,2.082603,10.620175,18.985882,0.348455,-0.130554,-0.985113,7.620000,2605.223218

-1.412316,1.620364,8.807145,18.965292,0.380964,-0.175852,-0.804985,7.620000,2625.915102

-1.419501,0.794083,8.639494,18.956469,0.021506,-0.236606,-0.594746,7.620000,2509.186840

-3.079249,1.352122,10.277688,18.959410,0.335399,0.043713,-0.340007,7.620000,2576.222628

-1.390761,0.552186,10.124407,18.950586,0.107040,-0.103375,-0.187058,7.612000,2496.106360

-4.573741,0.719837,9.266990,18.956469,0.021506,-0.157200,-0.117511,7.620000,2490.733479

-3.668424,1.850286,8.986773,18.947645,0.256526,-0.025834,-0.045566,7.616000,2490.733479

-1.184789,1.103040,9.480146,18.944704,-0.070424,-0.269914,0.039968,7.608000,2490.733479

-1.843419,3.385494,11.527888,18.938822,0.278376,-0.208361,0.009858,7.608000,2490.733479

-0.835116,-0.642929,8.306586,18.935881,0.206697,-0.194771,-0.030112,7.612000,2490.733479

-3.907926,3.023846,8.011999,18.932940,0.064939,-0.225414,-0.206776,7.612000,2490.733479

-4.674333,4.520733,7.322233,18.941763,0.037494,-0.297626,-0.308032,7.608000,2490.733479

1.464103,-0.812975,13.338523,18.950586,-0.012868,-0.506532,-0.291778,7.616000,79.619268

-0.027994,5.141044,14.203125,18.947645,0.235742,-0.426061,-0.319223,7.612000,79.619268

-2.983449,0.178563,9.544811,18.941763,0.590403,-0.342658,-0.514274,7.616000,79.619268

-1.524882,1.718560,9.106524,18.941763,0.297028,-0.289632,-0.428207,7.624000,79.619268

-2.681676,2.405931,6.948610,18.938822,0.071335,-0.276309,-0.414883,7.616000,79.619268

-1.970355,-0.271701,12.026052,18.935881,0.128091,-0.138548,-0.502550,7.616000,815.279473

-2.061366,1.680240,10.543535,18.927057,0.475558,-0.272312,-0.604871,7.620000,2374.459490

-1.292565,1.493428,7.628796,18.935881,0.137417,-0.411139,-0.593147,7.620000,1176.367343

-0.835116,2.437066,9.913645,18.918234,0.206431,-0.301889,-0.565968,7.612000,1618.773589

-1.814679,-0.784235,7.396479,18.900587,0.453708,-0.310682,-0.514540,7.616000,2597.912049

-1.457821,1.277877,10.174702,18.918234,-0.033385,-0.542505,-0.455652,7.616000,1542.356976

-0.296237,3.596256,9.348420,18.906469,0.440652,-0.266716,-0.204911,7.612000,1542.356976

-1.050668,1.486243,9.274175,18.924116,0.147809,-0.423663,-0.005597,7.612000,280.697799

-1.373995,3.579490,9.005932,18.894705,0.183515,-0.228878,0.389833,7.604000,400.606979

-2.842142,1.385653,8.335326,18.903528,0.143013,-0.278441,0.486826,7.612000,1486.229250

-3.481613,1.093460,10.081296,18.900587,-0.101067,-0.324006,0.466308,7.600000,2583.892724

-2.432594,5.792489,9.578342,18.897646,0.164063,-0.239271,0.456982,7.616000,2583.892724

0.862953,1.950877,8.550879,18.891764,0.004452,-0.324805,0.327481,7.604000,191.275541

-0.564479,3.275323,10.292058,18.906469,0.115834,-0.169724,0.160143,7.612000,2407.392381

0.525255,1.558094,9.111313,18.903528,0.061209,-0.177718,0.077806,7.608000,2345.580944

0.549205,2.731653,7.252778,18.903528,0.045221,-0.160931,0.112446,7.608000,2136.283102

-1.747618,0.887489,9.235854,18.882940,-0.000610,-0.070866,0.212103,7.612000,2617.006985

-0.938102,1.711375,10.311218,18.882940,-0.101600,-0.207828,0.188121,7.604000,2439.536014

-2.571505,1.685030,10.191467,18.879999,-0.092540,-0.160931,0.337340,7.600000,2286.487730

-3.160680,1.725745,11.741045,18.891764,0.123028,-0.077794,0.370648,7.604000,2342.810811

-1.699718,2.214329,9.276569,18.879999,0.177387,-0.137482,0.407420,7.604000,1613.506754

-0.636329,1.735325,8.119775,18.874117,-0.118653,-0.218486,0.455117,7.604000,2125.817447

-1.124913,3.198682,8.970007,18.882940,0.081727,-0.056211,0.505744,7.604000,2616.513938

-0.080685,1.330567,10.380673,18.868235,0.124893,-0.097246,0.521466,7.604000,2162.229849

-0.983607,1.395233,9.173584,18.882940,0.029500,-0.112967,0.438329,7.604000,2268.928084

-2.154772,2.061048,8.704160,18.900587,0.109705,0.017599,0.329613,7.596000,2110.951658

-1.393156,1.778436,7.956913,18.882940,-0.037116,-0.026900,0.239016,7.608000,2015.361289

-0.974027,2.700518,9.250224,18.894705,-0.066160,-0.095647,0.097524,7.604000,2240.012883

-0.126190,3.251373,9.084968,18.906469,0.026569,0.007740,-0.058357,7.608000,1144.846216

-1.191974,1.730535,9.413086,18.891764,0.063074,0.012004,-0.147089,7.604000,2194.695754

-2.023046,3.272928,9.010722,18.897646,-0.174877,0.011471,-0.182528,7.608000,424.539558

-1.060248,3.339988,9.130473,18.915293,-0.002742,-0.041555,-0.093530,7.604000,424.539558

-0.988397,2.058653,8.898156,18.897646,0.006851,-0.143877,-0.067683,7.600000,424.539558

-2.200277,2.061048,10.114826,18.897646,-0.000877,-0.169191,-0.039971,7.608000,424.539558

-0.430358,3.119647,8.615544,18.903528,-0.051771,-0.234208,0.045297,7.600000,424.539558

-1.005162,2.005963,9.674143,18.891764,0.063607,-0.210759,0.138826,7.600000,424.539558

-0.439938,0.995264,8.536509,18.879999,-0.011269,-0.243001,0.226225,7.612000,424.539558

-0.581244,3.050191,9.420271,18.891764,-0.030188,-0.151071,0.283248,7.608000,424.539558

-0.394432,4.544683,10.016630,18.888823,0.095849,-0.265384,0.429003,7.604000,424.539558

-0.423173,1.325777,9.434641,18.891764,0.287436,-0.261387,0.647769,7.592000,424.539558

-3.740275,-0.068124,8.021579,18.897646,0.103843,-0.253393,0.737300,7.600000,424.539558

-3.357072,2.571187,7.604846,18.894705,-0.047241,-0.253926,0.730106,7.596000,424.539558

-3.184630,4.254886,7.789262,18.888823,-0.006473,-0.256857,0.820437,7.604000,424.539558

-0.535739,2.271810,6.443261,18.903528,0.084924,-0.383693,0.896379,7.600000,424.539558

-1.421896,-3.995956,13.875007,18.906469,-0.128246,-0.309084,0.891582,7.600000,424.539558

0.063016,1.483848,15.316809,18.903528,0.232278,-0.152404,0.940611,7.608000,424.539558

0.915643,4.659645,7.341393,18.903528,0.320743,-0.021038,1.132731,7.612000,424.539558

-2.377509,1.802386,10.562695,18.927057,0.031632,-0.140146,1.104486,7.604000,30.786545

0.261803,3.299273,8.639494,18.912352,0.023105,-0.104441,0.942210,7.612000,609.643042

1.928736,6.017621,5.746310,18.903528,0.159534,0.042380,0.907303,7.612000,2523.321640

1.552718,0.327054,8.246711,18.915293,0.073200,-0.120162,0.914498,7.616000,2328.276191

0.074991,2.180799,10.234577,18.927057,-0.205520,0.021863,0.854011,7.616000,2418.714459

0.688116,1.126991,14.061818,18.903528,0.068137,0.095673,0.860939,7.620000,2335.717244

2.041302,5.179364,4.862548,18.909410,0.199237,0.328028,0.831628,7.616000,2538.080641

-1.412316,3.919583,4.237448,18.915293,-0.205786,0.381854,0.721846,7.612000,2054.118368

0.084571,-0.118420,11.444062,18.903528,-0.119186,0.263011,0.879058,7.612000,2216.768679

-1.213529,-1.153068,16.289186,18.906469,-0.067759,0.323498,0.855077,7.604000,2414.508619

2.431691,-0.003459,14.878520,18.891764,0.129423,0.342151,0.801518,7.620000,2553.952442

0.429454,0.710257,8.452682,18.877058,0.273580,0.377324,0.569429,7.620000,2560.073687

-3.081644,4.307577,12.174543,18.885881,-0.109860,0.425553,0.438596,7.616000,2532.064065

4.168080,5.466766,10.799802,18.871176,0.467564,0.333091,0.189720,7.624000,2562.435737

1.112035,2.288575,4.673342,18.891764,0.211494,0.447670,0.027444,7.624000,2295.180152

-0.107030,2.223909,9.140054,18.897646,0.010848,0.277667,-0.064485,7.620000,2389.989527

2.944225,-1.167438,12.253579,18.903528,0.052682,0.242760,0.146287,7.620000,2454.195644

0.937198,4.482413,6.965375,18.882940,0.047886,0.595556,0.144421,7.612000,2408.227404

-1.424291,5.481136,2.798041,18.874117,0.342327,0.406368,0.070078,7.616000,2338.864737

-2.897228,1.929322,6.685158,18.871176,-0.360068,0.115125,0.141224,7.604000,2213.235562

-0.818351,1.922137,11.036909,18.882940,-0.037382,0.272337,0.292308,7.612000,2162.229849

0.496515,4.092025,11.753019,18.877058,0.527518,0.278200,0.350930,7.624000,2397.417019

-0.427963,6.951678,6.649232,18.882940,0.467831,0.251020,0.205708,7.628000,2687.928673

-3.215765,5.006922,3.518942,18.882940,0.157935,-0.029831,0.193450,7.624000,1032.327713

-2.334398,-0.638139,9.901670,18.862352,-0.459192,-0.128422,0.394363,7.616000,990.007113

0.125287,4.092025,10.033396,18.871176,-0.007805,0.347213,0.448988,7.608000,705.904120

0.199532,2.058653,6.579777,18.862352,0.002321,0.036785,0.281117,7.612000,705.904120

-1.302145,-6.570602,15.611396,18.874117,-0.316635,-0.120162,0.351729,7.604000,705.904120

-0.200436,-0.159135,14.708474,18.856470,-0.164218,0.364533,0.277386,7.604000,705.904120

0.714462,5.972115,2.395678,18.868235,0.142480,0.213982,0.120173,7.600000,705.904120

-4.145033,2.508917,8.517348,18.856470,-0.856221,0.166818,0.209971,7.600000,705.904120

-0.847091,1.965247,11.700329,18.853529,-0.257214,0.027458,0.119640,7.596000,705.904120

2.153868,1.493428,10.708791,18.850588,0.069203,0.083416,-0.082338,7.596000,705.904120

1.603014,0.770133,12.421230,18.856470,-0.088010,-0.061540,0.042899,7.596000,705.904120

3.087926,7.483373,5.906776,18.859411,0.456373,0.264610,0.160942,7.612000,705.904120

-1.982330,8.345579,6.079218,18.847647,0.361246,0.283262,0.189453,7.620000,705.904120

-0.435148,-3.919316,21.060066,18.862352,-0.853823,-0.074597,0.346133,7.616000,705.904120

3.710631,6.276283,9.834609,18.850588,0.917619,-0.029032,0.191319,7.620000,705.904120

-2.389484,-2.166161,6.565407,18.835880,0.069469,-0.078061,0.291242,7.620000,705.904120

-2.691256,7.983932,6.790539,18.841763,0.171524,0.247024,0.510008,7.628000,705.904120

-1.754804,6.676251,4.306904,18.838821,-0.284393,-0.033295,0.564100,7.616000,705.904120

2.465221,1.019215,15.077307,18.847647,0.289301,0.014402,0.730639,7.624000,1587.678873

1.619779,2.762789,9.743598,18.853529,0.004452,0.021330,0.632314,7.628000,2582.931420

-0.372877,1.316197,8.687394,18.853529,-0.027790,0.121253,0.766078,7.624000,2442.110370

-1.711693,-1.141093,12.816408,18.841763,-0.028855,0.204390,0.894247,7.624000,2430.143325

0.345629,3.526800,7.782077,18.871176,0.246400,0.141504,0.944342,7.624000,2524.698019

-0.360902,6.067916,6.632467,18.856470,0.319944,0.206521,0.929686,7.624000,2510.547752

-0.178881,1.110225,8.838281,18.862352,0.268783,0.094873,1.092495,7.620000,2649.969327

-1.242269,3.050191,10.064531,18.856470,0.111837,0.195063,1.275288,7.624000,2580.051956

-1.340465,0.841983,12.440391,18.841763,0.025769,0.403171,1.259300,7.628000,2523.321640

-0.109425,2.322105,11.218930,18.859411,0.129423,0.450601,1.132997,7.624000,2560.073687

-2.315238,0.990474,11.566208,18.847647,-0.099468,0.493768,0.973653,7.624000,1602.705374

0.592316,3.605836,8.922107,18.859411,0.166995,0.518549,0.779401,7.624000,2460.719463

-0.456703,-0.113630,11.518308,18.859411,0.279975,0.371461,0.622455,7.624000,1674.001138

0.149237,2.683753,8.752060,18.862352,-0.019529,0.613409,0.480963,7.636000,1665.168451

-2.456544,7.296561,5.418192,18.847647,0.202168,0.918243,0.115643,7.628000,1644.851914

-1.520092,2.564002,6.491161,18.862352,-0.041646,0.288325,-0.157214,7.636000,886.764129

-0.324977,5.038058,6.939030,18.874117,-0.078684,0.431149,-0.215836,7.636000,886.764129

0.477355,-1.478791,11.611713,18.868235,-0.056301,0.182007,-0.287514,7.632000,886.764129

0.908458,-1.035712,12.696657,18.856470,-0.120785,0.381854,-0.223297,7.628000,886.764129

-2.377509,2.635853,9.928015,18.868235,0.097448,0.615541,-0.298706,7.628000,886.764129

-0.480653,0.391720,7.659931,18.853529,-0.184203,0.044778,-0.277655,7.632000,111.643142

0.417479,3.701637,10.198652,18.874117,-0.097336,0.348812,-0.159346,7.628000,111.643142

-0.574059,1.258717,9.791499,18.868235,0.008716,0.308843,-0.193453,7.620000,710.491187

-1.366810,2.710098,11.549443,18.868235,-0.061097,0.194530,-0.132433,7.620000,2777.167906

1.174305,3.007081,8.857441,18.879999,-0.019263,0.282729,-0.139361,7.620000,2546.925829

0.233063,2.743629,7.295888,18.871176,0.109705,0.244092,-0.359726,7.624000,1672.186800

-0.267496,3.066956,8.352092,18.882940,0.047619,0.056503,-0.457784,7.624000,2458.105697

2.242484,2.092183,9.290939,18.865294,0.067338,-0.010912,-0.623523,7.620000,1617.453676

0.714462,6.930123,10.644126,18.868235,-0.010469,0.247024,-0.794592,7.620000,2545.058521

-0.056735,1.019215,10.148356,18.879999,0.051083,0.018665,-0.836427,7.624000,2356.327765

3.154986,0.372559,9.659773,18.871176,-0.023793,0.025860,-0.735971,7.620000,2393.697658

1.104850,5.129068,8.965217,18.859411,-0.167949,0.152429,-0.721049,7.620000,2427.169998

-0.815956,2.604717,9.707673,18.877058,0.000722,0.188402,-0.728510,7.620000,2723.781709

-1.357230,1.898187,9.484936,18.871176,-0.184736,-0.087120,-0.762617,7.624000,2329.838814

0.355209,5.811649,8.668234,18.841763,-0.060298,-0.039157,-0.670421,7.624000,2459.411944

1.368302,1.143756,9.571157,18.853529,-0.186601,-0.100177,-0.534792,7.624000,2478.286524

1.480868,5.040452,9.995075,18.847647,-0.122117,-0.028232,-0.281652,7.628000,2269.298876

2.038908,4.594979,10.996194,18.868235,0.228814,0.062099,-0.084470,7.632000,2535.763297

-1.556017,1.706585,8.347301,18.862352,0.090520,-0.072998,0.023447,7.632000,2548.328058

-2.559530,2.413116,8.776011,18.859411,0.010048,-0.122826,0.155346,7.628000,2537.153237

-1.668583,0.973709,9.331655,18.879999,-0.006739,0.030922,0.128700,7.616000,2608.649123

-0.195646,4.432117,7.585685,18.859411,0.100645,-0.015176,-0.050363,7.632000,2625.418665

-1.261430,0.432435,8.663445,18.844706,0.103310,-0.021304,-0.090865,7.636000,2684.810419

-0.801586,1.095855,9.597502,18.841763,-0.101333,-0.138015,-0.151086,7.628000,2515.094932

-0.301027,2.578372,10.236973,18.865294,-0.055768,-0.059675,-0.169738,7.624000,2749.126714

-0.873436,3.557935,9.846584,18.850588,0.004985,-0.056211,-0.137230,7.632000,2513.274026

-0.121400,4.115975,8.560458,18.841763,0.088655,-0.145209,0.092195,7.624000,2515.550688

-1.582362,3.452554,8.617939,18.865294,0.079328,-0.132952,0.346133,7.632000,2570.499720

-2.796637,2.777159,10.390254,18.856470,-0.016332,-0.107372,0.552908,7.620000,2569.548374

-2.269733,1.804781,9.367580,18.853529,-0.075220,-0.234208,0.731438,7.640000,2519.658851

-1.271010,2.853800,9.963940,18.847647,-0.073355,-0.048750,0.811377,7.632000,2694.709716

-2.530790,1.560489,8.285031,18.847647,-0.110926,-0.192906,0.614195,7.636000,2594.029328

-0.818351,1.459898,9.051437,18.847647,-0.043244,-0.164395,0.459114,7.636000,2532.525966

-1.321305,0.758158,9.681328,18.844706,0.028168,-0.103908,0.274455,7.640000,2455.063509

-0.530949,1.057535,9.034673,18.832939,-0.170347,-0.045286,0.098590,7.636000,2717.917264

-0.358507,4.178246,8.795171,18.859411,-0.024592,0.012004,0.025313,7.640000,2488.947745

-0.102240,1.440738,10.256132,18.850588,0.112636,-0.068735,-0.045833,7.632000,2501.051877

0.067806,1.828731,9.061018,18.862352,0.034296,-0.105506,-0.089533,7.632000,2569.072913

-0.085475,1.967642,9.231064,18.856470,0.051083,-0.165194,0.028777,7.632000,2558.187098

0.307308,4.547079,7.142607,18.847647,0.182716,-0.055678,0.081536,7.632000,2598.398104

-1.508116,1.043165,11.717094,18.835880,0.029766,-0.071932,0.131365,7.640000,2593.544968

-0.360902,3.804622,10.811777,18.844706,-0.124515,-0.114566,0.230489,7.640000,2603.757636

-0.315397,5.615257,8.258686,18.856470,0.034030,0.076488,0.350130,7.640000,2591.608798

0.204322,4.973392,9.772339,18.829998,0.101711,0.093008,0.524130,7.640000,2617.993927

-1.429081,1.426368,10.256132,18.844706,0.123295,-0.035960,0.618725,7.632000,2640.395480

-0.734525,0.207303,7.997629,18.835880,0.000189,-0.050082,0.698663,7.644000,2629.893805

-0.806376,0.911439,8.888577,18.827057,0.029500,0.012004,0.853478,7.636000,2600.344444

-1.991910,1.141361,9.872930,18.850588,0.099313,-0.036226,0.965126,7.644000,2610.120214

0.242643,1.711375,10.375883,18.856470,0.108106,-0.064205,1.024280,7.648000,2621.453522

1.013839,3.787857,7.430009,18.847647,0.091852,0.233967,1.125270,7.640000,2518.744796

1.085690,2.027518,11.000983,18.835880,0.130756,0.148699,1.191619,7.644000,2638.388754

0.860558,1.519774,9.724438,18.847647,-0.001143,0.366399,1.006161,7.648000,2645.425749

-0.425568,1.649105,8.723320,18.847647,-0.115189,0.374926,0.742363,7.644000,2766.103475

0.302518,1.876631,8.764035,18.847647,-0.045909,0.423955,0.422075,7.640000,2560.545758

-0.214806,2.463411,9.149633,18.856470,-0.030188,0.533204,0.074608,7.636000,2588.709841

0.743202,4.120765,8.890971,18.841763,-0.112525,0.574772,-0.239818,7.636000,2585.817452

0.340838,3.282508,10.562695,18.838821,0.216823,0.424754,-0.495089,7.648000,2580.051956

0.783917,2.132899,7.614426,18.871176,-0.012601,0.390114,-0.637113,7.644000,2572.404531

-1.450636,2.585557,8.773615,18.853529,-0.124249,0.384252,-0.663493,7.644000,2597.425994

-0.360902,2.329290,11.456038,18.865294,-0.195128,0.236099,-0.561704,7.644000,2539.473124

0.668956,2.029913,10.145962,18.871176,0.050817,0.191333,-0.641909,7.636000,2541.797459

1.756295,2.734049,9.173584,18.865294,0.018575,0.124717,-0.747695,7.632000,2538.544661

0.963544,1.253927,9.841794,18.859411,0.001255,0.117789,-0.887588,7.628000,2503.306292

0.616266,2.552027,9.916039,18.871176,-0.055502,0.122319,-0.989643,7.636000,2509.640265

0.113312,3.014266,9.396320,18.891764,0.016976,0.086880,-1.015756,7.636000,2535.763297

-0.854276,2.798714,9.583132,18.882940,-0.133842,0.041847,-0.947542,7.632000,2501.502336

-1.342860,3.605836,10.373488,18.865294,0.113702,0.113526,-0.801520,7.632000,2497.902476

0.910853,2.422696,9.386741,18.879999,0.038293,-0.086588,-0.443661,7.640000,2498.801488

0.151632,2.348450,9.966335,18.903528,0.022305,-0.026101,-0.152418,7.636000,2521.031205

-1.678163,3.629786,9.638218,18.879999,0.123028,0.021063,0.101254,7.644000,2565.276004

-3.203790,1.009634,10.062136,18.871176,-0.112258,-0.100976,0.242480,7.644000,2592.092523

-2.624196,3.172337,11.144685,18.888823,-0.105597,-0.104174,-0.006396,7.640000,2592.092523

-0.514183,2.923255,7.980864,18.882940,0.177387,0.025860,-0.149220,7.640000,2533.912304

0.819842,0.815638,8.661049,18.877058,-0.080283,-0.033828,-0.265398,7.636000,2526.995446

-0.372877,2.746024,10.023815,18.874117,-0.080549,0.019997,-0.222497,7.644000,2565.276004

-1.184789,2.611902,8.967612,18.885881,0.058811,0.041847,-0.180929,7.640000,2573.357996

-1.421896,3.143597,8.517348,18.891764,0.113169,0.101801,0.010391,7.644000,2497.004100

-0.890202,-0.714779,9.695698,18.885881,-0.051238,0.000546,0.122838,7.636000,2589.675383

-1.920060,2.240674,11.139894,18.871176,-0.293719,0.035985,0.137493,7.640000,2505.564732

-0.339347,4.142320,10.893208,18.882940,0.111037,0.126050,0.212902,7.640000,2507.374409

-0.562084,1.958062,9.171188,18.859411,-0.036583,0.133244,0.203310,7.640000,2552.544068

-0.408803,2.463411,10.555510,18.859411,-0.072289,0.099670,0.094593,7.640000,2497.004100

-0.660280,2.307735,9.731624,18.877058,0.035096,0.146301,-0.090066,7.636000,2581.970963

-0.221991,1.459898,8.943662,18.894705,-0.064295,0.131912,-0.361324,7.632000,2454.195644

-1.043483,2.245465,9.070598,18.874117,-0.152494,0.066895,-0.551579,7.636000,2525.157165

-0.269891,4.575819,9.441826,18.877058,0.102511,-0.022104,-0.670687,7.636000,2491.627406

-1.311725,2.712493,7.832372,18.894705,0.168860,0.061033,-0.658963,7.640000,2553.952442

-1.999095,0.791688,8.677814,18.882940,-0.138904,-0.039957,-0.475370,7.640000,2532.525966

-1.575177,3.687266,8.905341,18.885881,-0.037915,0.027458,-0.090865,7.640000,2523.780362

-2.662516,0.722232,7.930568,18.882940,0.194440,0.085014,0.114045,7.632000,2537.153237

-1.242269,0.422855,10.806987,18.877058,0.183515,-0.126557,0.314691,7.640000,2529.757528

-2.296078,3.471714,7.152187,18.874117,0.043622,0.036785,0.435132,7.640000,2549.731771

-1.333280,1.419183,6.970165,18.877058,0.017509,-0.038891,0.257135,7.636000,2444.259692

-1.328490,-1.536271,12.073953,18.868235,-0.020861,0.027725,0.203043,7.640000,2490.286834

-0.772846,1.974827,10.301638,18.853529,-0.178074,0.168684,-0.022917,7.636000,2564.802237

-0.629144,4.800951,8.023974,18.882940,0.026302,0.269673,-0.276323,7.640000,2507.827199

0.120497,1.385653,9.837004,18.856470,0.006318,0.182540,-0.410886,7.640000,2480.943301

0.750387,1.416788,10.653706,18.882940,-0.017397,0.160690,-0.524666,7.636000,2501.953007

-0.032785,1.835916,10.608200,18.868235,-0.087211,0.174812,-0.810580,7.640000,2505.564732

-0.705785,6.214012,6.505531,18.871176,0.023371,0.235033,-1.082105,7.640000,2541.797459

-1.050668,1.443133,13.491804,18.877058,-0.398439,0.243293,-1.230259,7.636000,2485.383905

1.902391,6.609190,13.898957,18.879999,0.100112,0.406368,-1.382409,7.640000,2765.001905

-0.193251,5.315880,7.801237,18.888823,0.275445,0.170815,-1.543618,7.644000,2726.455860

0.623451,1.723350,8.174860,18.888823,0.103044,-0.046085,-1.552945,7.644000,2777.167906

-1.821864,0.880304,10.373488,18.885881,0.231478,-0.049283,-1.579857,7.652000,2775.502520

-0.736920,3.859708,8.735295,18.859411,0.490480,-0.151338,-1.355496,7.624000,2776.612565

0.654586,3.184312,11.453642,18.865294,0.373237,-0.065537,-0.970724,7.640000,2777.167906

-3.790570,0.779713,8.687394,18.856470,0.240805,-0.378630,-0.725312,7.656000,2776.612565

0.336049,-0.408217,0.817360,36.527058,0.121962,0.007740,-0.000268,7.652000,2777.167906

-5.287457,-0.702804,9.137658,35.771175,0.053482,-0.060741,-0.068749,7.640000,2776.612565

-3.249296,0.707862,7.901828,18.888823,0.043889,-0.329068,-0.068749,7.624000,2776.612565

-2.161957,2.427486,11.206955,18.877058,-0.115456,-0.117231,1.067181,7.624000,2776.612565

-1.852999,6.652301,9.920830,18.874117,-0.000077,0.147100,-0.109784,7.632000,2776.612565

-2.252968,1.699400,9.166399,18.856470,-0.065361,0.133777,-0.841490,7.640000,2776.612565

0.618661,0.034862,9.089758,18.859411,-0.060031,-0.047151,-0.984047,7.636000,2776.057437

-0.518973,-0.413007,9.283754,18.862352,-0.124249,-0.082324,-1.144458,7.640000,2776.612565

1.207836,2.643038,8.136540,18.856470,0.095050,-0.129488,-1.065318,7.620000,2776.057437

0.987494,4.008199,7.204877,18.853529,0.002854,-0.155335,-0.856945,7.624000,2759.506981

-0.976422,2.099368,10.117222,18.838821,0.007916,-0.078594,-0.649104,7.636000,2776.057437

-1.766779,2.935230,10.886023,18.853529,-0.045376,-0.208627,-0.558240,7.636000,2476.960361

-0.253126,1.833521,8.502978,18.853529,-0.100534,-0.494542,-0.212105,7.640000,2476.960361

-0.981212,2.949600,9.331655,18.847647,0.100912,-0.173454,-0.003998,7.640000,2487.164554

0.233063,2.839429,9.810658,18.835880,0.170459,-0.334398,0.229156,7.624000,2670.867372

-0.983607,2.013148,8.452682,18.847647,0.193641,-0.366373,0.385570,7.640000,2476.960361

-2.315238,-1.236894,9.669353,18.862352,-0.007538,-0.395151,0.508409,7.636000,2488.947745

-2.025441,1.694610,9.525652,18.853529,-0.058966,-0.325071,0.711720,7.640000,2442.110370

-0.732130,2.650223,11.250066,18.847647,0.083059,-0.165194,0.971521,7.640000,2481.830024

-0.516578,2.937625,9.358000,18.859411,-0.024858,-0.128689,1.077573,7.640000,2496.555124

-0.382457,2.070628,10.304033,18.853529,0.258658,-0.035693,1.279552,7.636000,2465.087815

-1.963170,0.135452,6.472001,18.853529,0.166728,0.064763,1.286746,7.640000,2205.501902

-1.496141,3.519615,8.543694,18.859411,0.319411,0.140439,1.119408,7.640000,2429.718292

-2.082921,-1.282399,9.221484,18.838821,-0.127979,-0.116698,0.939545,7.636000,2458.105697

-1.920060,3.442974,12.327825,18.832939,-0.182338,0.274469,0.719447,7.644000,2740.445945

0.728832,4.877591,12.002102,18.835880,-0.032852,0.197195,0.453518,7.644000,2526.075882

1.071320,3.490875,8.522139,18.832939,0.137684,0.269939,0.161475,7.640000,2705.209272

-2.329608,1.548514,8.938871,18.862352,-0.162620,0.352010,-0.039438,7.636000,2485.828856

-1.567992,1.783226,10.428574,18.856470,-0.069358,0.117789,-0.454053,7.640000,2774.948028

-0.339347,1.694610,10.131592,18.850588,-0.044577,0.167085,-0.698932,7.640000,2575.267045

-0.660280,1.989197,5.684040,18.853529,-0.159688,0.093275,-1.055193,7.640000,2756.220705

-1.163234,-2.003300,11.178215,18.844706,-0.227636,-0.021304,-1.050663,7.632000,2775.502520

0.019906,0.794083,9.386741,18.829998,-0.003808,0.070892,-1.002433,7.628000,2777.167906

-1.852999,2.504127,10.383068,18.827057,0.091586,0.058102,-0.935285,7.632000,2774.948028

-2.257758,4.077655,6.665998,18.827057,-0.003009,-0.140946,-0.825769,7.636000,2629.893805

-2.020651,-1.416520,9.302915,18.838821,0.123295,-0.205430,-0.742366,7.632000,2775.502520

-1.278195,3.562725,8.802356,18.818233,0.115567,-0.324538,-0.547848,7.636000,2456.366366

1.770665,2.827454,4.120092,18.827057,0.549635,-0.232609,-0.068749,7.644000,2512.364632

-1.146469,-2.199692,9.774734,18.832939,-0.245223,-0.346655,0.035971,7.640000,2491.180337

-6.350846,3.802227,12.540981,18.832939,-0.164751,-0.006382,0.359723,7.632000,2388.345330

2.038908,5.936190,11.084809,18.827057,0.484618,-0.188909,0.559836,7.628000,2393.697658

-1.122518,0.887489,6.840834,18.829998,0.228814,-0.617114,0.835092,7.636000,2361.135771

0.637821,1.376073,8.368856,18.829998,0.197105,-0.086055,1.069046,7.620000,2479.614171

-1.524882,5.155414,7.909013,18.809410,0.077996,-0.112168,0.940345,7.624000,2476.960361

0.039066,0.808453,7.267148,18.800587,0.000189,-0.291497,0.641374,7.636000,2657.068403

2.141893,3.986644,10.723162,18.815292,-0.048574,-0.142012,0.375977,7.636000,2336.110283

3.816012,2.506522,7.853928,18.815292,0.175521,0.066895,0.201178,7.640000,1519.404745

1.967057,0.494705,11.171030,18.812351,-0.275600,0.039716,0.046097,7.636000,2445.120564

-0.408803,6.345738,10.766272,18.803528,-0.129578,0.374926,0.093527,7.632000,2372.025824

1.306031,3.047796,7.719806,18.803528,0.162731,0.115924,-0.047698,7.636000,2403.225951

0.532440,0.068392,7.722201,18.812351,0.060676,0.014402,0.049294,7.640000,2423.780748

-0.775241,-1.397360,8.172465,18.809410,-0.060031,0.146567,0.237950,7.640000,2438.250956

-0.262706,0.899464,5.173901,18.812351,0.191509,0.085014,0.583818,7.640000,2692.097646

-2.727181,-0.868061,11.041698,18.794704,-0.104264,0.136974,0.792192,7.632000,2762.251688

-2.181117,2.729259,10.368698,18.809410,-0.040580,0.137507,0.963527,7.640000,2452.028948

-3.038534,0.844378,9.528047,18.797646,-0.079750,0.276601,0.926755,7.636000,2412.411420

-2.183512,4.321947,10.701606,18.782940,0.051350,0.253152,0.976584,7.640000,2433.550585

-0.463888,3.160362,10.759087,18.800587,-0.014733,0.322166,0.749291,7.632000,2734.509461

0.647401,4.024964,8.845466,18.797646,0.095849,0.447403,0.585417,7.640000,2602.781500

2.225719,3.907608,8.318562,18.800587,0.108639,0.445005,0.255536,7.636000,2777.167906

0.645006,3.732772,7.681486,18.806469,-0.159156,0.594757,-0.497753,7.632000,2753.487863

-0.499813,0.068392,12.873889,18.794704,-0.160221,0.567045,-0.940614,7.636000,2774.948028

0.958754,1.129385,8.649075,18.800587,-0.438675,0.520148,-1.461282,7.636000,2776.057437

-0.775241,3.931558,11.889536,18.812351,-0.089609,0.611811,-1.773842,7.636000,2776.057437

-0.518973,4.554264,10.193862,18.806469,0.063607,0.422622,-2.031245,7.636000,2774.948028

-2.027836,4.032149,8.579618,18.794704,0.098247,0.278999,-2.272926,7.632000,2777.167906

0.122892,0.705467,13.532519,18.815292,-0.035783,0.158824,-2.350201,7.644000,2774.393535

-0.277076,-0.408217,0.817360,36.527058,0.121962,0.007740,-0.000268,7.648000,2770.518653

-0.310607,2.381981,11.240485,18.800587,0.173123,-0.040223,-2.031778,7.652000,2776.057437

-1.649423,1.991592,10.574670,18.791763,0.237074,-0.023436,-1.604372,7.656000,2776.612565

-4.339030,-0.408217,0.817360,36.527058,0.121962,0.007740,-0.000268,7.652000,2767.757631

-3.134335,-0.151950,11.712304,1.888821,-0.014999,-0.129222,-0.137230,7.656000,2773.839254

-5.423974,1.196446,9.920830,18.815292,0.430259,-1.084223,-0.137230,7.660000,2777.167906

-3.172655,0.434830,7.190507,18.824116,0.561093,-0.765534,0.045564,7.664000,2777.167906

-0.890202,-0.408217,0.817360,36.527058,0.121962,0.007740,-0.000268,7.620000,2776.612565

0.120497,-0.408217,0.817360,36.527058,0.121962,0.007740,-0.000268,7.640000,2777.167906

-0.952472,-2.942148,15.046171,18.803528,-0.030454,-0.313081,-0.524399,7.644000,2776.057437

2.869979,0.585716,7.406059,18.812351,0.166195,0.311507,-0.955802,7.640000,2777.167906

0.834213,3.198682,8.802356,18.791763,0.048685,0.073290,-0.359193,7.636000,2777.167906

0.695301,2.250255,9.774734,18.791763,-0.059232,0.101002,-0.357860,7.632000,2679.112301

2.338285,5.792489,6.330695,18.800587,-0.303845,0.047443,-0.446326,7.636000,2764.451438

0.604291,1.524564,11.949411,18.806469,-0.072822,0.349612,-0.359459,7.640000,2777.167906

-0.051945,3.356754,9.920830,18.809410,-0.175410,0.347213,-0.819373,7.640000,2777.167906

1.152750,1.730535,8.208390,18.806469,-0.123982,0.177477,-0.690939,7.644000,2776.612565

0.395924,0.530631,8.890971,18.791763,0.121962,0.007740,-0.000268,7.644000,2774.948028

-0.020809,1.136571,9.614267,18.782940,0.036961,0.027725,-0.450589,7.652000,2777.167906

-0.724945,2.444251,8.914922,18.794704,-0.177009,-0.026900,-0.164142,7.648000,2777.167906

-4.688703,5.677528,9.916039,18.762352,0.184315,0.245691,0.017052,7.648000,2773.839254

-1.888925,2.403536,7.439589,18.774117,0.099580,-0.082591,0.159077,7.644000,2728.598826

-1.630263,-0.465697,9.185558,18.785881,-0.102932,-0.108970,0.399692,7.644000,2777.167906

-1.869765,3.905213,8.493398,18.774117,-0.031254,0.013869,0.459646,7.640000,2777.167906

-0.837511,2.310130,11.518308,18.777058,-0.050705,0.019731,0.524663,7.644000,2776.612565

-3.033744,2.231094,9.698093,18.771175,0.241071,0.009605,0.401824,7.648000,2777.167906

-2.758317,1.771251,8.713739,18.777058,0.063874,-0.131620,0.257401,7.640000,2769.966067

-1.699718,0.786898,9.185558,18.779999,0.012446,-0.099111,0.156945,7.656000,2776.612565

0.640216,-0.513598,9.065807,18.771175,-0.266273,-0.162263,-0.000534,7.648000,2772.177894

-1.036298,5.265584,6.433681,18.759411,-0.181805,0.016533,-0.261401,7.640000,2774.393535

0.975519,-0.918356,15.630556,18.759411,0.147543,-0.060741,-0.068749,7.652000,2776.612565

1.428177,4.762630,5.904382,18.777058,0.177920,-0.078061,-0.068749,7.644000,2775.502520

-0.145350,-1.028527,9.290939,18.756470,-0.058433,-0.185978,-0.550246,7.644000,2776.057437

1.124010,2.789134,5.930727,18.750587,0.351653,-0.141212,-0.436200,7.640000,2776.612565

-2.712811,4.726705,9.288545,18.741764,0.045488,0.036518,-0.310430,7.640000,2777.167906

-0.952472,4.561449,8.548483,18.735882,-0.216178,-0.137748,0.397561,7.636000,2777.167906

-1.644633,-0.111235,10.438154,18.738823,-0.124249,-0.270980,0.841754,7.644000,2774.393535

-3.740275,-3.090639,9.690907,18.732941,-0.371260,-0.377298,0.747426,7.652000,2777.167906

-0.890202,-0.408217,0.817360,36.527058,0.121962,0.007740,-0.000268,7.656000,2774.393535

0.968334,7.349251,7.997629,18.724117,0.281840,0.198261,0.682409,7.644000,2777.167906

-1.266220,4.484808,11.420112,18.732941,0.026036,0.378390,0.753288,7.644000,2777.167906

-1.362020,2.135294,12.011682,18.727058,-0.118653,0.227838,0.341870,7.648000,2766.654578

-0.348927,2.149664,9.401111,36.527058,0.121962,0.007740,-0.000268,7.652000,2777.167906

-0.839906,2.240674,5.909172,18.721176,-0.014999,0.214249,-0.474571,7.648000,2776.612565

0.568365,6.949283,0.817360,36.527058,0.121962,0.007740,-0.000268,7.652000,2776.057437

0.987494,1.910162,8.605964,18.709410,0.092385,-0.058609,-0.643242,7.648000,2776.612565

0.010326,3.718402,22.887466,35.768234,-0.014999,-0.129222,-0.137230,7.652000,2775.502520

-2.296078,4.132740,10.428574,18.721176,-0.044577,0.065030,-0.306966,7.644000,2773.839254

-3.737880,3.062166,10.438154,18.694704,-0.218310,-0.128955,-0.201447,7.648000,2777.167906

-3.139125,4.738680,8.989167,18.709410,0.144878,-0.149206,-0.106586,7.652000,2777.167906

0.494120,5.660763,8.280241,1.888821,0.053482,-0.060741,-0.137762,7.656000,2775.502520

2.149078,2.693333,7.489884,18.679998,0.267717,-0.089519,-0.049030,7.652000,2715.791037

0.242643,0.621641,6.201364,18.700586,0.070535,-0.119362,0.046363,7.652000,2776.612565

-0.427963,-1.165043,9.662168,18.682940,0.078795,-0.176918,0.080470,7.652000,2776.612565

-0.890202,-0.408217,0.817360,36.527058,0.121962,0.007740,-0.000268,7.644000,2776.612565

-0.657885,1.273087,9.099339,18.685881,-0.082681,-0.046618,-0.038638,7.652000,2687.408505

-0.974027,2.803504,7.897038,18.688822,-0.187667,-0.035427,0.002663,7.648000,2754.580321

1.298846,3.941139,9.147239,18.674116,-0.096803,0.041314,0.015986,7.648000,2774.948028

-2.782267,4.463253,7.315048,18.674116,-0.157290,0.137507,-0.006396,7.652000,2777.167906

-1.709298,-2.626005,18.001625,18.688822,-0.121318,-0.104707,0.047429,7.652000,2776.612565

-0.490233,4.374637,9.899275,18.674116,-0.166616,-0.016241,0.127634,7.656000,2777.167906

-3.910321,0.228858,7.389294,18.674116,-0.235364,-0.121494,0.527061,7.652000,2773.285397

-1.886530,4.767420,12.811619,18.685881,0.179252,0.184405,0.759950,7.652000,2769.413481

-0.212411,4.568634,9.070598,18.671175,0.056146,0.093541,0.682409,7.656000,2769.966067

-2.923573,2.968760,17.982466,35.771175,0.053482,-0.060741,-0.068749,7.652000,2776.612565

-0.071105,3.931558,10.888417,18.668234,-0.134641,0.070092,0.515604,7.652000,2777.167906

0.019906,3.878868,8.754455,18.671175,0.092119,0.107930,0.452718,7.652000,2776.612565

-2.631381,-0.784235,7.307863,18.665293,0.131555,0.043180,0.105784,7.660000,2776.057437

0.589921,4.034544,10.272898,18.671175,0.230413,-0.087120,-0.273392,7.664000,2777.167906

2.963385,1.009634,8.340117,18.691763,0.208829,-0.129222,-0.137230,7.660000,2776.057437

1.377882,4.238121,7.985653,18.915293,0.053482,-0.060741,-0.069015,7.652000,2776.057437

-1.151259,3.043006,9.319680,18.662352,0.019374,0.286993,-0.272060,7.652000,2759.506981

0.125287,4.884776,7.638376,18.688822,0.021506,0.053305,-0.370651,7.652000,2775.502520

1.586249,1.158126,9.844189,18.671175,-0.155958,0.043446,-0.348268,7.652000,2777.167906

-1.338070,1.086275,10.902788,18.668234,0.002854,0.213449,-0.468176,7.660000,2776.057437

-0.600404,0.576136,9.540022,18.671175,-0.127713,-0.319476,-0.724779,7.660000,2513.729147

0.714462,6.264307,8.855046,18.668234,0.168327,-0.026900,-0.585686,7.664000,2594.514112

-0.439938,0.851563,8.783195,18.671175,-0.107462,-0.177984,-1.364822,7.668000,2413.249834

0.417479,1.064720,8.603569,18.656469,-0.158356,-0.114833,-0.955536,7.660000,2755.673628

-0.813561,-0.125605,11.288386,18.656469,-0.102133,-0.127090,-0.372782,7.660000,2776.612565

-0.346532,1.773646,7.681486,18.662352,-0.132509,-0.221418,-0.077808,7.652000,2774.948028

-1.215924,1.790411,8.553273,18.677057,0.105708,-0.083124,0.272323,7.660000,2775.502520

-1.635053,2.662198,9.995075,18.674116,0.200569,-0.078860,0.241147,7.664000,2776.612565

0.132472,3.019056,10.007051,18.662352,0.071601,-0.089252,0.162807,7.664000,2777.167906

-0.700995,1.481453,8.548483,18.677057,0.000722,0.040782,0.014121,7.668000,2774.948028

-0.818351,0.858748,10.567485,18.650587,0.121962,0.007740,-0.000268,7.664000,2777.167906

-1.254244,0.511470,6.390571,18.674116,-0.065894,-0.085788,-0.179331,7.660000,2777.167906

-2.509235,1.174891,9.420271,18.671175,-0.070424,-0.056477,0.028244,7.656000,2777.167906

-2.873278,4.202196,10.050160,18.671175,0.028967,-0.047950,0.324816,7.652000,2767.757631

-2.327213,4.592584,9.084968,18.674116,0.331135,-0.016508,0.442326,7.664000,2722.179888

-1.584757,2.580767,8.457473,18.665293,0.038560,-0.260854,0.643772,7.660000,2744.779550

-2.161957,4.300392,12.308664,18.682940,0.004985,-0.088186,0.705858,7.664000,2773.839254

-2.051786,3.495665,8.984377,18.668234,0.069469,-0.213957,0.681876,7.664000,2750.215783

-2.729577,4.369847,8.498188,18.691763,-0.243891,-0.288300,0.574492,7.664000,2774.948028

1.327587,-4.328864,19.572758,18.671175,0.257592,-0.220618,0.565166,7.660000,2739.905225

0.283358,5.600887,5.339157,18.677057,0.093451,0.117789,0.304032,7.672000,2773.285397

-1.065038,4.475228,8.747270,18.653528,-0.285992,0.037584,-0.127903,7.664000,2776.057437

1.806591,5.861944,12.054792,18.665293,0.272780,0.071691,-0.304035,7.664000,2776.057437

1.152750,5.176969,10.112432,18.659410,0.232011,0.125250,-0.585153,7.664000,2776.612565

1.406622,2.860985,5.722360,18.650587,0.145678,0.047976,-0.663493,7.660000,2745.322177

0.956359,-1.349460,8.007209,18.656469,-0.083747,-0.099911,-0.743165,7.660000,2670.867372

-0.068710,2.176009,10.751902,18.668234,-0.127979,-0.058609,-0.715187,7.652000,2771.624673

-0.940497,7.322906,7.609635,18.659410,0.052416,-0.033828,-0.551046,7.656000,2568.122626

2.656822,3.306458,13.642690,18.662352,0.573083,-0.246998,-0.339208,7.660000,2628.400467

0.642611,2.312525,6.804909,18.674116,0.348455,-0.219286,-0.212905,7.664000,2675.498881

1.504818,2.137689,6.565407,18.653528,-0.408564,-0.407675,0.191852,7.664000,2600.344444

-0.911757,0.554581,12.734978,18.641764,-0.297982,-0.044220,0.398094,7.664000,2472.549844

-2.753527,4.214171,11.875166,18.653528,-0.094938,0.007474,-0.068749,7.660000,2596.454731

-1.491351,3.102882,9.829819,18.635881,0.044688,-0.021571,0.514271,7.668000,2470.789959

0.170792,1.014425,7.808422,18.641764,0.104909,-0.109237,0.858274,7.672000,2777.167906

-2.044601,-0.525573,8.718530,18.653528,-0.093339,-0.161463,0.997101,7.660000,2777.167906

-3.306776,1.057535,9.734018,18.656469,-0.037382,-0.001053,1.084501,7.660000,2687.928673

-0.969237,1.891002,9.755573,18.653528,0.150474,0.024261,1.098890,7.668000,2776.612565

-0.928522,-0.286071,7.015671,18.647646,0.073200,0.140705,0.886519,7.668000,2706.263804

-4.923414,-0.101654,12.524216,18.653528,-0.562580,0.209719,0.765812,7.668000,2773.839254

-1.960775,2.810689,8.653864,18.641764,-0.190065,0.293388,0.171068,7.664000,2571.451702

-0.741710,3.981854,10.296848,18.647646,-0.062163,0.234500,-0.062087,7.664000,2556.303263

-1.872159,1.601204,12.423625,18.644705,0.073999,0.293654,-0.311496,7.668000,2480.500046

-2.509235,1.816756,10.577065,18.650587,-0.074154,0.236099,-0.531061,7.664000,2539.008892

-0.128585,7.509718,6.244474,18.647646,0.053482,0.055171,-0.381309,7.672000,2587.262905

1.540743,3.328013,8.622729,18.629999,0.051883,0.093541,-0.285649,7.664000,2730.208275

-2.336793,0.887489,10.747111,18.621176,0.087855,0.012803,-0.233422,7.668000,2762.801308

0.142052,-0.362712,9.084968,18.621176,-0.039247,-0.258456,-0.123373,7.664000,2773.839254

0.221088,0.583321,10.411809,18.656469,-0.164751,0.040782,0.126035,7.660000,2595.484103

-2.789452,1.043165,9.892090,18.629999,-0.083214,0.073823,0.355193,7.664000,2529.757528

-1.175209,2.858590,10.636941,18.641764,-0.017930,0.005342,0.451120,7.656000,2512.364632

0.259408,3.553145,9.585527,18.638823,0.088921,0.030123,0.383971,7.660000,2546.458843

0.968334,2.626273,7.851532,18.644705,0.077197,0.022929,0.208106,7.656000,2526.995446

1.320402,0.061207,10.783037,18.627058,0.034829,0.089544,-0.058623,7.664000,2563.855129

0.115707,2.698123,7.909013,18.624117,0.038293,0.216913,-0.306700,7.656000,2561.963031

0.288148,2.104158,12.083532,18.632940,-0.017930,0.284062,-0.654700,7.664000,2403.225951

1.394647,1.431158,8.306586,18.632940,-0.033918,0.059967,-0.798056,7.660000,2579.093617

-0.487838,0.137847,8.912526,18.618235,-0.245223,-0.007981,-0.800721,7.664000,2543.659894

-0.020809,5.157809,10.612990,18.624117,-0.270803,0.125517,-0.666957,7.652000,2704.155799

1.614989,4.635695,10.459709,18.609411,0.087322,0.141771,-0.472173,7.660000,2776.612565

-3.733090,1.970037,7.099496,18.621176,-0.197526,-0.061807,-0.095928,7.656000,2633.884586

1.028209,2.511312,12.996035,18.600588,0.201635,-0.014110,0.259000,7.652000,2774.948028

-0.552504,2.707703,8.241920,18.588821,0.050018,0.132178,0.145754,7.656000,2734.509461

-0.890202,-0.408217,0.817360,36.527058,0.121962,0.007740,-0.000268,7.652000,2775.502520

0.221088,2.056258,10.373488,18.597647,-0.148497,0.059967,0.237150,7.652000,2771.071451

-1.599127,4.051310,6.527087,18.597647,-0.221241,0.203590,0.155080,7.644000,2773.839254

1.334772,1.941297,15.649716,18.591763,-0.040047,0.063431,0.098057,7.652000,2718.449298

2.113153,5.373360,8.493398,18.588821,-0.069624,0.192132,-0.037573,7.652000,2777.167906

-3.057694,6.060731,5.509203,18.597647,-0.077352,0.234233,-0.135364,7.652000,2774.948028

-3.127150,2.465806,11.628479,18.582939,0.164596,0.070625,-0.220099,7.660000,2428.443403

1.200651,3.004686,13.424744,18.582939,0.344725,-0.025301,-0.456185,7.656000,2776.057437

-1.742828,5.900265,8.364067,18.577057,0.668210,-0.261920,-0.403426,7.660000,2580.051956

-0.777636,-0.915961,4.361989,18.571175,0.155803,-0.297626,-0.200648,7.664000,2777.167906

-2.396669,0.432435,10.289662,18.588821,0.080128,-0.150805,-0.209707,7.660000,2776.057437

0.700091,3.426209,10.524375,18.574116,-0.005140,-0.062606,-0.173202,7.660000,2498.801488

-1.527277,2.595137,10.840517,18.579998,0.184848,-0.082324,-0.292577,7.660000,2646.434091

0.000746,5.708663,7.511440,18.571175,0.261056,-0.088186,-0.374381,7.660000,2751.305699

2.110758,2.496942,10.311218,18.571175,0.358048,-0.060741,-0.068749,7.660000,2776.612565

1.186280,1.098250,7.930568,18.577057,0.149408,-0.331733,-0.682412,7.660000,2776.057437

0.343234,8.173139,0.201840,35.771175,-0.014999,-0.129222,-0.274191,7.656000,2777.167906

-0.890202,-0.408217,0.817360,36.527058,0.121962,0.007740,-0.000268,7.640000,2774.393535

-0.950077,2.192774,10.289662,18.565292,0.101445,-0.229145,0.087132,7.656000,2777.167906

-2.116452,-5.332377,-4.125960,24.432940,-0.973731,-1.087953,-1.095961,7.656000,2777.167906

-3.167865,4.403378,12.234419,18.562351,-0.188999,0.378123,-0.068749,7.660000,2777.167906

-1.175209,2.719678,0.817360,36.527058,0.121962,0.007740,-0.000268,7.672000,2775.502520

-9.476347,-1.639257,-0.418470,33.503529,-0.153027,-1.087953,-2.191655,7.664000,2777.167906

-0.890202,-0.408217,0.817360,36.527058,0.121962,0.007740,-0.000268,7.684000,2776.612565

0.336049,-2.870297,-4.087640,36.527058,0.121962,0.007740,-0.000268,7.688000,2777.167906

-1.021928,2.065838,7.638376,18.509411,-0.014733,-0.060741,-0.068749,7.684000,2777.167906

-1.179999,2.583162,7.453959,18.512352,0.063074,-0.022370,0.166005,7.680000,2773.839254

-0.880621,0.434830,8.893367,18.503529,-0.139704,-0.075396,-0.130301,7.684000,2775.502520

-0.569269,0.238438,0.817360,36.527058,0.121962,0.007740,-0.000268,7.680000,2776.612565

1.497633,3.629786,0.817360,36.527058,0.121962,0.007740,-0.000268,7.692000,2777.167906

-0.890202,-0.408217,0.817360,36.527058,0.121962,0.007740,-0.000268,7.684000,2777.167906

-1.314120,3.914793,9.032277,18.471176,0.038027,0.186537,0.322152,7.688000,2776.612565

0.170792,3.898028,5.799001,18.538822,0.053482,-0.060741,-0.068749,7.684000,2776.612565

-0.468678,-1.936239,16.356247,18.477058,-0.169548,0.197461,0.441527,7.676000,2776.612565

-0.765660,7.090590,9.477751,18.485882,-0.100534,0.317103,0.490290,7.684000,2776.057437

-0.135770,4.465648,8.268266,18.488823,0.193907,0.425553,0.400492,7.688000,2768.309369

1.332377,1.692215,6.369015,18.491764,0.127292,0.384252,0.412749,7.684000,2777.167906

-1.534462,1.725745,9.856164,18.491764,-0.050972,0.248622,0.077273,7.684000,2776.057437

-3.404972,2.777159,5.976232,18.494705,-0.105863,0.314971,-0.127637,7.692000,2776.612565

-2.578690,1.462293,9.425060,18.494705,-0.291854,0.174812,-0.215037,7.680000,2769.413481

1.157540,6.137372,13.546889,18.485882,0.067338,0.093541,-0.446859,7.688000,2776.612565

1.018629,7.346857,8.505373,18.474117,0.409475,0.171348,-0.626455,7.680000,2774.948028

3.047211,2.106554,6.488766,18.468235,0.397751,-0.034094,-0.679214,7.692000,2777.167906

1.253341,0.980894,7.283913,18.482941,0.543773,0.028258,-0.755422,7.692000,2776.612565

-0.930917,-2.609240,8.201205,18.474117,0.003653,0.023195,-0.554776,7.684000,2776.612565

-0.159721,5.517062,3.983576,18.485882,0.145411,0.080218,-0.710124,7.680000,2777.167906

0.051041,-0.362712,8.936477,18.491764,0.004452,0.000546,-0.622191,7.680000,2765.552584

0.316888,0.894674,0.201840,35.771175,0.053482,-0.060741,-0.068749,7.680000,2776.612565

0.144447,2.195169,9.877720,18.468235,0.076397,-0.284303,-0.311230,7.680000,2776.612565

0.175582,3.747142,10.560300,35.009411,-0.151961,-0.266183,-0.274191,7.692000,2776.057437

-0.313002,5.040452,8.395202,18.480000,0.504336,0.046644,0.783132,7.680000,2777.167906

-0.890202,-0.408217,0.817360,36.527058,0.121962,0.007740,-0.000268,7.672000,2776.612565

-1.077013,-0.427377,-4.106800,30.480000,-0.425884,-0.540107,-0.548115,7.684000,2776.612565

0.592316,2.793924,7.252778,18.485882,0.370039,-0.265384,-0.068749,7.668000,2775.502520

1.147960,1.749696,6.733058,-32.743530,0.121962,0.007740,-0.000268,7.692000,2777.167906

-1.941615,4.760235,10.052556,18.468235,-0.217511,-0.265117,-0.000268,7.684000,2776.612565

-0.583639,-0.599819,9.609477,18.477058,-0.230834,-0.233941,0.022382,7.688000,2776.612565

-0.377667,5.703873,10.426179,18.471176,0.188578,-0.060474,0.348532,7.684000,2774.948028

-1.639843,1.886212,9.839399,18.471176,-0.082681,-0.011445,0.707723,7.692000,2777.167906

-0.756080,-0.841716,9.434641,18.477058,-0.012335,-0.130287,0.791659,7.688000,2777.167906

0.762362,-2.144606,11.695539,18.465292,-0.142635,-0.030097,0.903040,7.680000,2773.285397

-3.378627,1.352122,7.487489,18.494705,-0.146099,0.177210,0.826565,7.692000,2771.624673

-3.625314,4.891962,5.451723,18.474117,-0.378721,0.113259,0.446323,7.680000,2776.057437

-0.930917,3.023846,8.399992,18.465292,-0.214047,0.182806,0.586483,7.688000,2737.744461

-2.825377,1.840706,10.215417,0.382938,0.053482,-0.060741,-0.137230,7.688000,2776.612565

-0.478258,4.003409,10.361513,18.474117,0.074266,0.081017,0.227291,7.684000,2776.612565

-1.218319,2.494547,11.281200,18.462351,-0.310506,0.216647,0.136161,7.684000,2776.057437

0.611476,1.799991,11.889536,18.462351,0.121962,0.007740,-0.000268,7.684000,2773.285397

0.201927,-0.118420,8.689790,18.474117,0.056146,0.154561,-0.116978,7.684000,2777.167906

1.492843,2.983131,0.817360,36.527058,0.121962,0.007740,-0.000268,7.676000,2777.167906

2.508331,3.213053,0.201840,35.771175,0.053482,-0.060741,-0.068749,7.684000,2775.502520

-1.220714,4.096815,8.828701,18.456469,-0.002476,0.058102,-0.537989,7.680000,2773.839254

0.067806,-1.023737,0.201840,35.771175,0.053482,-0.060741,-0.068749,7.688000,2769.413481

-0.411198,4.238121,9.152028,18.453527,-0.014999,-0.129222,-0.137230,7.688000,2767.205892

-1.263825,4.494388,0.201840,35.771175,0.053482,-0.060741,-0.068749,7.692000,2777.167906

-2.207462,2.427486,10.663286,18.462351,0.187512,0.036518,0.242746,7.688000,2777.167906

-2.183512,2.774764,10.129196,18.441763,-0.033652,0.087146,0.405288,7.696000,2776.612565

-1.124913,-2.123051,8.953242,18.459410,-0.077618,0.007474,0.585950,7.684000,2775.502520

1.157540,2.892120,7.681486,18.477058,0.269050,0.093275,0.492688,7.688000,2777.167906

0.237853,2.037098,9.894485,18.456469,0.014578,0.247556,0.486826,7.684000,2776.612565

0.403109,0.367769,9.214299,18.459410,0.122495,0.240628,0.126302,7.692000,2776.057437

0.642611,2.290970,7.499465,18.456469,-0.048574,0.207854,-0.189456,7.692000,2777.167906

-0.248336,2.118529,8.651469,18.453527,-0.026457,0.286993,-0.536124,7.684000,2750.760529

-1.175209,1.306617,10.670471,18.456469,-0.112258,0.222509,-0.909971,7.700000,2776.057437

-2.214647,3.828573,7.667116,18.456469,0.005785,0.160157,-0.957401,7.692000,2777.167906

-2.952313,4.178246,7.008485,18.453527,-0.163952,0.014668,-1.050929,7.684000,2775.502520

-0.236361,0.518656,13.779206,18.438822,-0.029388,-0.039424,-0.890252,7.688000,2716.853833

-2.451754,-0.343551,11.044094,18.438822,-0.005407,-0.197436,-0.852415,7.696000,2742.069378

-0.016019,3.723191,10.548325,18.456469,0.092119,-0.191840,-0.706660,7.692000,2748.582603

0.676141,3.342384,9.556787,18.441763,0.173390,-0.107905,-0.468442,7.688000,2729.135097

-0.691415,0.944969,9.166399,18.444704,0.175521,-0.137215,-0.497487,7.684000,2705.736432

-2.830167,0.932994,10.272898,18.444704,-0.110126,-0.262719,-0.532660,7.696000,2708.903630

-1.888925,2.896910,9.995075,18.453527,-0.043777,-0.292829,-0.620592,7.696000,2753.487863

0.846188,4.525523,8.639494,18.468235,0.160866,-0.293362,-0.545716,7.684000,2738.284334

-0.497418,3.373519,7.992838,18.456469,0.308486,-0.261653,-0.459383,7.692000,2723.781709

3.701051,-2.580500,9.698093,18.459410,-0.176476,-0.597130,-0.466844,7.696000,2699.424494

-1.601522,4.729100,11.872770,18.456469,0.200036,-0.111102,-0.370118,7.692000,2738.284334

-2.320028,6.271492,8.423943,18.450586,-0.056567,-0.291764,-0.427407,7.696000,2762.801308

-0.152535,1.407208,9.537626,18.462351,0.166195,-0.166260,-0.329615,7.700000,2774.393535

-0.974027,2.542447,9.853769,18.453527,0.018042,-0.356248,-0.318957,7.696000,2767.205892

-0.736920,3.888448,8.402388,18.468235,0.173656,-0.383427,-0.341340,7.696000,2773.285397

0.894088,1.641920,9.338840,18.480000,-0.044310,-0.413004,-0.237153,7.704000,2731.282300

0.623451,5.586517,9.207114,18.459410,0.136884,-0.372235,-0.069815,7.696000,2702.576861

-0.751290,1.270692,9.068203,18.482941,0.174455,-0.476689,0.132697,7.696000,2536.226470

-1.433871,0.901859,10.191467,18.474117,0.106508,-0.511329,0.309628,7.696000,2728.062767

-0.377667,1.838311,10.174702,18.477058,0.190443,-0.573148,0.634446,7.696000,2771.071451

-0.152535,1.364097,8.622729,18.459410,0.059077,-0.333065,1.106884,7.704000,2767.205892

-4.022887,-0.551918,8.943662,18.465292,0.110505,-0.311748,1.243046,7.696000,2745.322177

-4.449201,0.415670,11.343472,18.471176,-0.088543,-0.217421,1.260100,7.688000,2720.579762

-2.418224,5.677528,9.360395,18.482941,0.204033,-0.087387,1.112480,7.696000,2740.445945

-2.147587,2.341265,8.958032,18.462351,0.381230,-0.277641,0.927288,7.700000,2773.285397

-1.970355,2.655013,8.019184,18.474117,-0.041379,-0.261920,0.877460,7.700000,2777.167906

-1.019533,1.457503,11.324311,18.465292,-0.023260,-0.280306,0.961395,7.704000,2777.167906

-0.672255,4.420143,9.247829,18.474117,0.075331,-0.144143,1.174832,7.704000,2759.506981

-1.436266,3.577096,8.004814,18.456469,0.145411,0.007474,1.083169,7.708000,2676.530318

1.478473,-0.276491,8.929292,18.471176,0.120897,-0.415669,1.234786,7.704000,2644.418042

0.312098,0.456385,9.180769,18.462351,-0.042978,-0.062339,1.494853,7.704000,2774.948028

-0.461493,1.215606,11.515913,18.456469,0.051616,0.243559,1.350963,7.708000,2760.055541

0.448614,2.513707,11.712304,18.468235,0.162998,0.389847,1.107683,7.712000,2775.502520

2.002982,2.413116,11.008168,18.459410,0.178452,0.378922,0.668020,7.712000,2747.495018

2.093993,3.668106,6.802514,18.444704,0.298361,0.446604,0.128700,7.708000,2772.731539

1.547928,-0.235776,10.131592,18.432940,-0.093872,0.429017,-0.211306,7.716000,2777.167906

0.412689,2.951995,10.629756,18.450586,-0.177009,0.376791,-0.508945,7.716000,2769.966067

3.080741,2.413116,8.227551,18.435881,0.153671,0.352809,-0.655499,7.708000,2774.948028

4.522542,2.571187,9.089758,18.432940,0.051883,0.446870,-0.660029,7.700000,2777.167906

1.950292,4.559054,0.817360,36.527058,0.121962,0.007740,-0.000268,7.700000,2776.057437

2.113153,3.783067,7.650351,18.447645,0.086523,0.472184,-0.624856,7.704000,2776.057437

-0.212411,2.736444,8.895761,18.441763,-0.179407,0.402105,-0.342139,7.704000,2776.612565

-2.772687,2.305340,9.310100,18.450586,-0.155159,0.316837,-0.260868,7.704000,2776.057437

-1.168024,2.465806,10.938713,18.438822,-0.066160,0.254751,0.067680,7.700000,2777.167906

-0.792006,1.756881,7.861113,18.438822,-0.037382,0.179076,0.220630,7.704000,2735.048063

-0.782426,1.440738,7.772497,18.427057,0.053482,-0.060741,-0.068749,7.700000,2776.612565

-0.660280,-5.313217,0.817360,36.527058,0.121962,0.007740,-0.000268,7.692000,2776.057437

-0.890202,-0.408217,0.817360,36.527058,0.121962,0.007740,-0.000268,7.696000,2776.612565

-0.320187,-1.023737,0.201840,35.771175,0.053482,-0.060741,-0.068749,7.696000,2762.801308

-2.638566,2.925650,8.766430,18.447645,0.362045,-0.018906,-0.189989,7.704000,2766.103475

-0.205226,2.063443,7.525810,18.444704,0.053482,-0.060741,-0.068749,7.696000,2706.263804

-3.225345,3.912398,11.767390,18.465292,0.175788,0.087679,-0.327217,7.704000,2776.057437

-1.230294,3.145992,10.385464,18.465292,0.147276,-0.026633,-0.477769,7.704000,2774.948028

-2.794242,4.508758,8.898156,18.474117,0.204566,-0.031430,-0.546782,7.708000,2777.167906

-2.909203,2.190379,10.054951,18.453527,0.291166,-0.215555,-0.576893,7.708000,2767.757631

-0.526159,-0.108840,11.094389,18.453527,0.148875,-0.361310,-0.543851,7.704000,2776.057437

0.673746,1.797596,9.362790,18.459410,0.179785,-0.257923,-0.533193,7.712000,2776.057437

-1.072223,2.022728,8.320956,18.465292,-0.028589,-0.305087,-0.482298,7.704000,2777.167906

-3.345096,-1.023737,0.201840,35.771175,-0.014466,0.007740,-0.000268,7.708000,2776.057437

-1.987120,2.286180,7.401269,18.471176,-0.003275,-0.490545,-0.487894,7.708000,2775.502520

-0.890202,-0.408217,0.817360,36.527058,0.121962,0.007740,-0.000268,7.696000,2777.167906

-0.231571,1.337752,9.741203,18.474117,-0.014733,-0.060741,-0.068749,7.704000,2776.612565

-0.890202,-0.408217,0.817360,36.527058,0.121962,0.007740,-0.000268,7.708000,2776.057437

-0.200436,2.231094,9.013118,18.482941,-0.014733,-0.060741,-0.068749,7.704000,2777.167906

-0.691415,-0.341156,12.212864,18.462351,0.068137,0.129247,-0.448458,7.696000,2776.057437

-1.235084,1.567674,6.163043,18.494705,-0.010469,-0.019439,-0.467909,7.696000,2777.167906

-0.427963,9.399388,-0.413680,35.015293,-0.014999,-0.129222,-0.137230,7.704000,2775.502520

-1.220714,-0.408217,0.817360,36.527058,0.121962,0.007740,-0.000268,7.704000,2777.167906

-0.890202,-0.408217,0.817360,36.527058,0.121962,0.007740,-0.000268,7.712000,2776.057437

-1.769174,3.471714,8.409573,18.506470,-0.057633,0.156426,-0.048764,7.712000,2776.612565

