ax,ay,az,gx,gy,gz,temp,volt,vel

-0.782426,2.269415,9.571157,14.518234,-0.000077,-0.014376,-0.023716,2.580000,0.000000

-0.693810,1.965247,9.298124,14.527058,-0.002209,-0.047418,-0.013324,2.488000,0.000000

-0.119005,2.005963,9.429851,14.532940,-0.001676,-0.043687,0.011989,2.444000,0.000000

0.122892,2.197564,9.396320,14.535881,0.002587,-0.022370,0.040767,2.412000,0.000000

-0.233966,2.116133,9.379556,14.527058,-0.000877,-0.020505,0.036238,2.380000,0.000000

-0.257916,2.178404,9.451406,14.562351,-0.000344,-0.017307,0.011989,2.344000,0.000000

-0.253126,2.245465,9.465776,14.568233,0.000722,-0.017307,0.003729,2.308000,0.000000

-0.159721,2.245465,9.355605,14.544704,-0.006473,-0.015708,0.007726,2.276000,0.000000

-0.078290,2.125714,9.456196,14.553528,-0.006739,-0.006116,0.013055,2.240000,0.000000

-0.140560,2.029913,9.403505,14.577057,-0.005407,0.006941,0.018385,2.212000,0.000000

-0.260311,1.962852,9.326865,14.571175,-0.007805,0.003210,0.013055,2.180000,0.000000

-0.049550,2.104158,9.441826,14.577057,-0.001943,0.011471,0.005328,2.140000,0.000000

-0.099845,2.183194,9.496911,14.582939,-0.006739,0.019731,0.002130,2.112000,0.000000

-0.384852,2.070628,9.355605,14.571175,-0.010203,0.020264,-0.012259,2.080000,0.000000

-0.578849,1.977222,9.350815,14.597647,-0.007005,0.014668,-0.021052,2.044000,0.000000

-0.593219,1.943692,9.437036,14.600588,-0.008338,0.009872,-0.009860,2.020000,0.000000

-0.506998,2.123319,9.463381,14.588821,-0.003009,0.009073,0.009858,1.988000,0.000000

-0.605194,2.135294,9.477751,14.597647,-0.001143,0.006408,0.028244,1.960000,0.000000

-0.602799,2.130504,9.439431,14.597647,-0.003541,-0.004784,0.026645,1.928000,0.000000

-0.444728,1.967642,9.441826,14.609411,-0.006473,-0.007715,0.014921,1.900000,0.000000

-0.262706,2.116133,9.355605,14.618235,-0.003009,-0.001320,0.010391,1.868000,0.000000

-0.348927,2.178404,9.350815,14.612352,-0.003275,0.006408,0.015720,1.836000,0.000000

-0.516578,2.168824,9.516071,14.609411,-0.005940,0.002944,0.013322,1.808000,0.000000

-0.588429,2.144874,9.379556,14.641764,-0.002742,-0.003451,-0.000268,1.780000,0.000000

-0.281867,2.154454,9.393926,14.632940,-0.003808,-0.007981,-0.002399,1.756000,0.000000

-0.071105,2.159244,9.492122,14.624117,-0.009137,0.004010,0.008792,1.728000,0.000000

-0.298632,2.221514,9.403505,14.627058,-0.007805,0.012537,0.009591,1.700000,0.000000

-0.521369,2.008358,9.398716,14.618235,-0.004341,0.000812,-0.005597,1.676000,0.000000

-0.356112,1.955667,9.358000,14.615294,-0.007272,0.000013,-0.014657,1.648000,0.000000

-0.423173,2.108948,9.429851,14.615294,-0.004074,0.007474,-0.004798,1.624000,0.000000

-0.365692,2.123319,9.437036,14.638823,-0.005140,0.000279,0.006660,1.596000,0.000000

-0.423173,2.008358,9.480146,14.627058,-0.006739,0.001079,0.004262,1.568000,0.000000

-0.363297,2.034703,9.427456,14.635881,-0.004341,0.000279,-0.005064,1.544000,0.000000

-0.286657,2.089788,9.362790,14.632940,-0.004874,0.000279,-0.003465,1.516000,0.000000

-0.451913,2.132899,9.413086,14.635881,-0.004341,0.004809,0.003996,1.484000,0.000000

-0.478258,2.147269,9.460986,14.629999,-0.005940,0.003210,0.002930,1.464000,0.000000

-0.463888,2.101763,9.427456,14.644705,-0.001676,0.002144,-0.006929,1.440000,0.000000

-0.272286,2.120924,9.381950,14.644705,-0.003541,0.000812,-0.004265,1.416000,0.000000

-0.265101,2.061048,9.439431,14.647646,-0.008071,-0.001852,0.002930,1.396000,0.000000

-0.324977,2.056258,9.372371,14.644705,-0.006473,0.013336,-0.002399,1.356000,0.000000

-0.341742,2.173614,9.432246,14.647646,0.000455,0.010671,-0.004798,1.332000,0.000000

-0.190856,2.195169,9.417875,14.674116,-0.009404,0.011737,0.001065,1.304000,0.000000

-0.253126,2.166429,9.367580,14.671175,-0.007805,0.019731,0.000265,1.284000,0.000000

-0.454308,1.998778,9.444221,14.671175,-0.011002,0.020530,-0.007462,1.264000,0.000000

-0.609984,2.027518,9.458591,14.653528,-0.007805,0.017066,-0.015723,1.248000,0.000000

-0.547714,2.044283,9.489726,14.647646,-0.004607,0.011204,-0.015456,1.228000,0.000000

-0.650700,2.106554,9.377160,14.677057,-0.005140,0.009872,0.002130,1.216000,0.000000

-0.595614,2.089788,9.384345,14.662352,-0.001410,0.006408,0.031441,1.192000,0.000000

-0.528554,2.075418,9.343630,14.674116,-0.004074,-0.002652,0.026112,1.172000,0.000000

-0.389642,2.123319,9.391530,14.671175,-0.005940,0.000013,0.001065,1.156000,0.000000

-0.490233,2.123319,9.441826,14.679998,0.000988,0.003743,-0.009860,1.144000,0.000000

-0.547714,2.008358,9.508886,14.685881,-0.001943,-0.009580,-0.001334,1.128000,0.000000

-0.406408,2.027518,9.499307,14.697645,0.001255,-0.008514,0.008792,1.120000,0.000000

-0.693810,2.022728,9.422666,14.679998,0.002054,-0.006116,0.018651,1.108000,0.000000

-0.495023,2.108948,9.302915,14.682940,0.003120,-0.023702,0.016786,1.096000,0.000000

-0.262706,2.101763,9.391530,14.688822,0.002587,-0.017307,0.022115,1.088000,0.000000

-0.214806,2.164034,9.393926,14.697645,-0.001410,-0.015442,0.021582,1.080000,0.000000

-0.535739,2.118529,9.446616,14.694704,-0.004607,-0.008514,-0.002399,1.072000,0.000000

-0.399222,2.183194,9.403505,14.715292,-0.007272,-0.015442,-0.021585,1.064000,0.000000

-0.200436,2.290970,9.372371,14.718235,-0.006206,-0.011445,0.009858,1.056000,0.000000

-0.231571,2.355635,9.441826,14.697645,-0.005407,-0.002652,0.040235,1.048000,0.000000

-0.253126,2.010753,9.494516,14.721176,-0.000344,-0.000254,0.018918,1.040000,0.000000

-0.339347,1.879027,9.415481,14.727058,-0.007538,-0.001586,-0.008262,1.036000,0.000000

-0.298632,2.039493,9.396320,14.703527,-0.002742,0.000546,-0.009061,1.028000,0.000000

-0.574059,2.144874,9.369975,14.703527,-0.001943,0.002677,0.000532,1.024000,0.000000

-0.909362,2.166429,9.420271,14.715292,-0.005140,-0.007981,-0.005064,1.016000,0.000000

-0.847091,2.005963,9.468171,14.712351,-0.000877,-0.020238,-0.013591,1.012000,0.000000

-0.645909,1.864656,9.439431,14.706469,0.000722,-0.030364,-0.010127,1.012000,0.000000

-0.351322,1.847891,9.415481,14.724117,0.001255,-0.035427,0.009058,1.004000,0.000000

-0.229176,1.888607,9.449011,14.712351,0.004985,-0.031163,0.025579,1.000000,0.000000

-0.217201,2.010753,9.463381,14.715292,0.006051,-0.025035,0.026645,0.996000,0.000000

-0.511788,2.231094,9.441826,14.735882,0.007916,-0.034361,0.006127,0.992000,0.000000

-0.425568,2.329290,9.511281,14.730000,0.000189,-0.036226,0.007726,0.984000,0.000000

-0.344137,2.223909,9.365185,14.735882,0.005518,-0.030630,0.004262,0.984000,0.000000

-0.739315,2.039493,9.427456,14.732941,0.003920,-0.034627,0.007193,0.980000,0.000000

-0.284262,2.073023,9.386741,14.735882,0.002587,-0.048217,0.016786,0.976000,0.000000

-0.001649,2.140084,9.434641,14.750587,0.003653,-0.039424,0.018385,0.972000,0.000000

-0.111820,2.164034,9.365185,14.747646,0.002054,-0.025834,0.008792,0.972000,0.000000

-0.336952,2.082603,9.391530,14.732941,-0.001410,-0.027966,-0.006663,0.964000,0.000000

-0.231571,2.084998,9.472961,14.765293,0.000189,-0.029298,-0.013058,0.964000,0.000000

-0.356112,2.154454,9.460986,14.768234,0.005785,-0.022370,-0.001867,0.960000,0.000000

-0.356112,2.140084,9.410690,14.744705,0.002054,-0.030097,0.017852,0.960000,0.000000

-0.320187,2.094578,9.439431,14.753529,0.003920,-0.029831,0.023447,0.956000,0.000000

-0.145350,2.113739,9.420271,14.750587,0.003653,-0.029298,0.012789,0.956000,0.000000

-0.236361,2.094578,9.449011,14.744705,0.004719,-0.023169,0.011723,0.952000,0.000000

-0.298632,2.156849,9.369975,14.756470,0.001788,-0.033561,0.013588,0.952000,0.000000

-0.178881,2.209539,9.422666,14.750587,0.000455,-0.030364,0.009858,0.948000,0.000000

-0.080685,2.267020,9.434641,14.774117,0.002321,-0.021038,0.003996,0.944000,0.000000

-0.119005,2.176009,9.362790,14.762352,-0.000877,-0.023969,0.010391,0.948000,0.000000

0.036671,2.135294,9.405901,14.768234,0.000189,-0.015176,0.005594,0.944000,0.000000

-0.150140,2.259835,9.381950,14.777058,-0.002742,-0.009313,-0.001334,0.940000,0.000000

-0.135770,2.192774,9.396320,14.756470,-0.011002,-0.010113,-0.013324,0.940000,0.000000

-0.142955,2.061048,9.429851,14.777058,-0.006206,-0.006915,-0.032510,0.936000,0.000000

-0.164511,2.013148,9.338840,14.768234,-0.001943,-0.007182,-0.034375,0.936000,0.000000

-0.406408,2.049073,9.434641,14.762352,-0.001410,-0.007981,-0.027181,0.936000,0.000000

-0.327372,2.089788,9.441826,14.788822,-0.003541,-0.019173,0.005061,0.932000,0.000000

-0.198041,2.073023,9.403505,14.779999,-0.000344,-0.015975,0.009591,0.932000,0.000000

-0.279472,2.087393,9.401111,14.779999,0.002054,-0.022104,0.008259,0.928000,0.000000

-0.262706,2.142479,9.451406,14.794704,0.004186,-0.019439,0.003996,0.928000,0.000000

-0.418383,2.128109,9.475356,14.771175,0.000722,-0.022104,-0.000801,0.928000,0.000000

-0.516578,2.111343,9.381950,14.779999,0.000455,-0.029032,-0.004798,0.924000,0.000000

-0.174091,2.144874,9.417875,14.782940,0.005785,-0.038624,-0.005331,0.924000,0.000000

-0.202831,2.142479,9.396320,14.803528,0.000988,-0.031163,0.007193,0.924000,0.000000

-0.382457,2.094578,9.417875,14.794704,0.001521,-0.034627,0.002663,0.924000,0.000000

-0.207621,2.140084,9.496911,14.797646,0.004186,-0.039690,-0.002399,0.924000,0.000000

-0.109425,2.228699,9.432246,14.812351,0.005518,-0.040756,0.008525,0.924000,0.000000

0.012721,2.235884,9.381950,14.803528,0.003120,-0.040490,0.026911,0.920000,0.000000

0.043856,2.183194,9.377160,14.791763,0.003120,-0.030897,0.023980,0.920000,0.000000

-0.128585,2.111343,9.350815,14.809410,0.002854,-0.035427,0.009058,0.916000,0.000000

0.055831,2.056258,9.463381,14.806469,0.003120,-0.036493,-0.006130,0.916000,0.000000

0.019906,2.106554,9.451406,14.821175,0.003387,-0.024768,-0.013591,0.916000,0.000000

-0.375272,2.089788,9.408296,14.827057,0.002321,-0.032496,-0.050896,0.916000,0.000000

-0.423173,2.190379,9.374765,14.821175,0.003653,-0.041022,-0.052494,0.916000,0.000000

-0.377667,2.197564,9.453801,14.806469,0.005785,-0.049816,-0.020519,0.916000,0.000000

-0.339347,2.044283,9.417875,14.809410,0.005252,-0.054612,0.003729,0.916000,0.000000

0.031881,1.967642,9.358000,14.800587,0.012446,-0.063938,0.008525,0.912000,0.000000

0.113312,2.053863,9.425060,14.803528,0.014312,-0.053280,0.002397,0.912000,0.000000

0.029486,2.255045,9.338840,14.806469,0.010315,-0.051947,-0.003465,0.912000,0.000000

-0.066315,2.307735,9.365185,14.791763,0.012979,-0.054079,-0.023983,0.908000,0.000000

-0.186066,2.223909,9.346025,14.809410,0.009515,-0.061007,-0.021318,0.912000,0.000000

0.027091,2.096973,9.389135,14.809410,0.010848,-0.065537,0.006127,0.908000,0.000000

-0.459098,1.613179,9.664562,14.818233,0.013512,-0.066070,-0.006663,0.908000,0.000000

0.098942,2.408326,9.178373,14.800587,0.007384,-0.075396,-0.000801,0.908000,0.000000

0.055831,2.319710,9.389135,14.832939,0.018575,-0.082591,0.019717,0.908000,0.000000

0.534835,2.587952,9.293335,14.829998,0.019374,-0.069001,0.033839,0.904000,0.000000

-0.023204,2.410721,9.262199,14.821175,0.016177,-0.048750,0.007993,0.908000,0.000000

-0.279472,2.504127,9.458591,14.815292,0.004452,-0.066603,-0.007462,0.908000,0.000000

-0.207621,2.197564,9.487331,14.806469,0.004452,-0.081258,0.011989,0.908000,0.000000

0.326468,2.099368,9.360395,14.824116,0.007650,-0.080459,0.014388,0.904000,0.000000

-0.063920,1.373677,9.173584,14.827057,0.016443,-0.093516,-0.005864,0.904000,0.000000

0.182767,1.629945,9.748388,14.818233,0.022039,-0.083390,-0.020785,0.908000,0.000000

-0.617169,2.681358,9.803473,14.806469,0.035895,-0.090851,0.004795,0.904000,0.000000

-1.172814,3.054981,9.135263,14.818233,0.015377,-0.125758,0.047429,0.904000,0.000000

-0.207621,2.978341,8.438313,14.829998,-0.001943,-0.083923,0.077806,0.904000,0.000000

-0.447123,2.549632,9.475356,14.827057,0.004452,-0.111901,0.107650,0.900000,0.000000

1.634149,2.228699,8.974797,14.818233,0.015644,-0.166793,0.157212,0.904000,0.000000

1.454523,1.970037,9.686118,14.829998,-0.012601,-0.085255,0.199313,0.904000,0.000000

1.713185,2.255045,9.516071,14.847647,-0.000877,-0.073264,0.172400,0.900000,0.000000

0.496515,2.120924,9.197534,14.829998,0.022039,-0.062073,0.144954,0.904000,0.000000

1.564694,2.173614,9.666958,14.835880,0.003387,-0.092183,0.068213,0.900000,0.000000

1.710790,2.463411,9.458591,14.832939,-0.011802,-0.038624,0.007993,0.904000,0.000000

0.783917,2.609508,9.480146,14.841763,-0.009137,-0.013577,-0.071946,0.896000,0.000000

0.316888,1.134176,9.377160,14.850588,-0.004341,-0.032496,-0.154550,0.896000,0.000000

0.474960,1.936507,9.065807,14.850588,0.034030,0.011471,-0.150819,0.896000,0.000000

0.439034,2.793924,9.513677,14.844706,0.003653,0.007474,-0.068216,0.896000,0.000000

-0.305817,2.434671,10.373488,14.838821,0.019641,-0.021304,0.084201,0.896000,0.000000

-0.248336,2.319710,9.092153,14.824116,-0.001410,-0.013577,0.172933,0.896000,0.000000

-0.253126,2.068233,9.307705,14.850588,0.003920,-0.020505,0.129766,0.896000,0.000000

1.569484,2.542447,9.398716,14.847647,0.019374,-0.084189,0.127901,0.896000,0.000000

2.208954,2.073023,9.456196,14.850588,0.019374,0.024794,0.137760,0.896000,0.000000

1.279686,1.263507,9.386741,14.829998,-0.005940,0.034386,0.010391,0.900000,0.000000

0.553995,1.064720,9.240644,14.835880,0.009515,0.066895,-0.179064,0.896000,0.000000

0.252223,1.064720,10.102851,14.862352,-0.016598,-0.034627,-0.036773,0.896000,0.000000

1.047369,1.732930,9.549602,14.856470,0.018841,0.118056,0.001864,0.896000,0.000000

1.646124,1.685030,9.108918,14.841763,-0.093073,0.066362,-0.120442,0.896000,0.000000

2.122733,4.384217,9.326865,14.841763,0.058278,0.101002,0.043432,0.896000,0.000000

0.168397,2.779554,8.835886,14.853529,0.025237,0.087412,0.018385,0.896000,0.000000

0.285753,2.604717,8.989167,14.850588,0.028434,0.049841,-0.114314,0.896000,0.000000

0.146842,3.783067,8.926897,14.841763,-0.081082,0.072757,-0.181462,0.896000,0.000000

-0.744105,4.463253,9.578342,14.865294,0.008716,0.097272,-0.206510,0.896000,0.000000

0.127682,3.725587,9.056228,14.829998,0.014045,0.057302,-0.105254,0.896000,0.000000

-0.504603,3.668106,8.792775,14.862352,-0.001676,0.036518,0.000798,0.896000,0.000000

0.422269,3.354359,9.101733,14.850588,-0.023260,0.039183,0.037836,0.892000,0.000000

0.549205,3.248978,9.003537,14.856470,-0.048574,0.070625,0.059420,0.892000,0.000000

0.553995,4.372242,9.341235,14.856470,-0.000077,0.059967,0.047429,0.896000,0.000000

0.707277,3.014266,9.041858,14.871176,0.005252,0.076488,-0.001067,0.892000,0.000000

1.377882,3.893238,9.360395,14.865294,-0.038714,0.076221,-0.030911,0.896000,0.000000

0.324073,2.999896,8.970007,14.853529,0.018841,0.148699,-0.040770,0.940000,0.000000

0.707277,2.578372,8.500583,14.850588,-0.106129,0.115658,-0.064752,1.016000,0.000000

-0.250731,4.719520,9.848979,14.850588,-0.046442,0.141771,-0.097793,1.080000,0.000000

0.316888,4.092025,8.828701,14.859411,0.019641,0.148432,-0.125505,1.456000,0.000000

0.259408,4.398587,8.435918,14.865294,-0.028322,0.161489,-0.135897,1.448000,0.000000

-0.626749,3.727982,9.425060,14.865294,-0.074154,0.146834,-0.142026,1.488000,0.000000

-1.153654,4.683595,9.298124,14.850588,0.015377,0.136974,-0.207309,3.328000,0.000000

-0.660280,4.384217,8.311377,14.868235,-0.118387,0.114059,-0.340274,4.004000,0.000000

0.024696,3.977064,8.328141,14.871176,-0.069624,0.110861,-0.435135,4.716000,0.000000

0.918038,3.335198,10.344748,14.865294,-0.104264,0.131112,-0.485496,5.244000,0.000000

0.216298,3.522010,9.738809,14.853529,-0.000610,0.201725,-0.464712,5.384000,0.000000

-1.026718,3.569910,6.821674,14.865294,-0.071223,0.146567,-0.543851,5.844000,0.000000

-1.055458,4.788976,8.249105,14.879999,-0.071223,0.116723,-0.577692,6.172000,0.000000

-1.551227,4.961417,8.577224,14.874117,-0.087744,0.151630,-0.493756,6.312000,0.000000

-2.408644,1.457503,9.700488,14.891764,-0.033119,0.117523,-0.419147,6.864000,0.000000

-1.472191,6.678646,9.631032,14.850588,-0.035250,0.091942,-0.499885,7.044000,0.000000

-0.099845,2.549632,7.930568,14.879999,-0.008071,0.104733,-0.411419,7.136000,0.000000

-0.442333,4.487203,9.398716,14.853529,-0.042711,0.102334,-0.209441,7.172000,0.000000

-0.871041,3.888448,10.778247,14.868235,-0.005940,0.200126,-0.260335,7.176000,0.000000

-0.974027,2.372401,9.480146,14.868235,0.061475,0.091409,-0.402893,7.208000,2046.851270

-0.866251,1.332962,9.789104,14.862352,0.096382,0.063964,-0.456984,7.212000,2046.851270

0.707277,2.317315,8.100615,14.865294,0.076397,0.043979,-0.503082,7.212000,2046.851270

0.446219,-1.212944,10.323193,14.856470,-0.007805,0.057569,-0.713055,7.200000,2046.851270

0.144447,1.459898,9.171188,14.871176,-0.168748,0.135376,-0.809514,7.144000,2046.851270

-1.697323,2.722074,10.265713,14.868235,-0.020062,0.058901,-0.629119,7.092000,2046.851270

-2.779872,2.398746,10.945898,14.862352,-0.074687,-0.015442,-0.463913,7.048000,2046.851270

-3.117570,2.197564,10.732741,14.877058,-0.049639,-0.092716,-0.299239,7.000000,2046.851270

-2.981054,2.245465,9.001143,14.879999,0.111837,-0.078594,-0.241150,7.092000,2046.851270

-1.977540,-0.046569,7.791657,14.856470,-0.089342,-0.184912,-0.218501,7.036000,2046.851270

-1.029113,3.543565,7.614426,14.877058,-0.049639,-0.120162,-0.357061,7.084000,2046.851270

0.326468,2.738839,9.003537,14.850588,-0.144767,-0.075396,-0.617128,7.072000,2046.851270

0.058226,3.692056,9.712463,14.871176,0.036961,0.016800,-0.605138,7.148000,2046.851270

0.609081,4.333922,7.940148,14.877058,0.104642,-0.018107,-0.284583,7.160000,2046.851270

-0.562084,1.982013,11.209351,14.859411,-0.177009,-0.041022,0.116976,7.180000,2046.851270

-3.287616,3.917188,9.099339,14.879999,0.040158,-0.007715,0.310427,7.192000,2046.851270

-2.219437,2.226305,7.073151,14.865294,0.156869,-0.090318,0.308029,7.224000,2046.851270

-1.429081,2.427486,9.537626,14.850588,-0.035517,-0.139614,0.253404,7.236000,2046.851270

-1.965565,2.326895,9.659773,14.882940,0.027901,-0.093782,-0.013857,7.232000,2046.851270

-1.472191,2.264625,10.217813,14.877058,0.137151,-0.191840,-0.344804,7.224000,2046.851270

-3.836076,-4.724042,7.082731,14.853529,-0.111192,-0.229944,-0.425275,7.244000,2046.851270

3.854332,9.629310,12.560142,14.868235,-0.101067,-0.144676,-0.296841,7.220000,2046.851270

3.071161,-3.308586,8.886181,14.879999,-0.116255,0.094607,-0.027447,7.192000,2046.851270

-2.003886,2.547237,11.218930,14.871176,0.141947,0.132178,0.267527,7.196000,2046.851270

-1.572782,2.868170,8.419152,14.879999,0.083325,0.097005,0.171867,7.204000,2046.851270

-6.336476,-1.121933,6.821674,14.862352,-0.080816,0.062099,-0.125772,7.200000,2046.851270

-1.057853,1.922137,14.143250,14.879999,-0.022993,-0.058076,-0.401827,7.216000,2046.851270

-3.785780,-1.711108,7.738966,14.862352,0.258391,0.038117,-0.514540,7.248000,2046.851270

-1.347650,2.837034,7.628796,14.862352,0.173656,-0.013310,-0.463113,7.256000,2046.851270

0.738412,8.230618,9.580737,14.868235,0.212293,0.164687,-0.405824,7.240000,2046.851270

1.219811,0.528236,11.532678,14.859411,-0.296384,-0.085788,-0.120176,7.232000,2046.851270

0.697697,-1.615307,7.674301,14.859411,0.430792,0.152696,0.028510,7.228000,2046.851270

0.041461,0.089947,10.306428,14.874117,0.000455,0.018132,-0.171337,7.192000,2046.851270

-0.382457,1.019215,10.572275,14.865294,-0.252417,-0.035693,-0.337343,7.096000,2046.851270

0.930013,-2.956518,8.792775,14.865294,0.056946,0.019198,-0.348801,7.084000,2046.851270

-2.487679,1.136571,9.324470,14.871176,0.069203,0.096206,-0.418614,6.980000,2046.851270

-4.065998,1.423973,8.869416,14.859411,0.055080,-0.025834,-0.360259,7.036000,2046.851270

-3.486403,1.136571,9.628637,14.865294,0.161665,-0.003185,-0.380510,7.092000,2046.851270

-3.797755,1.213211,8.934082,14.862352,0.100379,-0.156667,-0.337876,7.036000,2046.851270

-2.578690,3.078931,7.717412,14.859411,0.380431,-0.076462,-0.166274,7.108000,2046.851270

-4.607272,7.160045,10.567485,14.874117,0.058544,-0.112967,0.025846,7.144000,2046.851270

1.253341,4.626114,8.064690,14.865294,0.239206,-0.083124,0.405288,7.204000,2046.851270

0.750387,0.832403,8.967612,14.868235,-0.128779,-0.052747,0.605135,7.208000,2046.851270

-1.141679,6.520575,7.362948,14.862352,0.455840,0.209452,0.783665,7.200000,2046.851270

-1.261430,-2.470329,8.251501,14.877058,-0.488503,-0.396483,0.834293,7.108000,2046.851270

-1.560807,-2.132631,12.040422,14.865294,0.010581,0.025060,0.871597,6.992000,2046.851270

-2.411039,-0.108840,12.164963,14.868235,-0.236963,0.011737,0.582752,6.844000,2046.851270

-4.303104,-0.676459,9.700488,14.871176,0.027635,-0.022104,0.429003,6.704000,2046.851270

-2.997819,3.421419,9.135263,14.885881,0.030832,-0.113500,0.236884,6.576000,2046.851270

1.049764,5.907450,9.765154,14.868235,-0.037116,-0.121761,0.278452,6.708000,2046.851270

2.649637,3.629786,8.857441,14.865294,-0.082414,-0.074597,0.432734,6.976000,2046.851270

1.420992,6.352923,7.829977,14.862352,-0.000610,0.015468,0.504679,7.084000,2046.851270

1.107245,1.651500,6.819279,14.874117,-0.059232,0.027458,0.367184,7.120000,2046.851270

0.324073,3.531590,9.458591,14.879999,-0.181805,0.196929,0.142290,7.172000,2046.851270

-0.705785,4.683595,11.080019,14.874117,-0.011269,0.284861,-0.044501,7.172000,2046.851270

-2.844537,5.708663,10.490845,14.847647,-0.204721,0.161756,-0.272326,7.164000,2046.851270

-0.255521,-0.288466,7.631191,14.871176,-0.013134,-0.045286,-0.404225,7.196000,2046.851270

-0.166906,3.325619,7.834767,14.874117,-0.076019,0.053572,-0.242216,7.212000,2046.851270

-1.556017,6.163717,9.631032,14.856470,-0.125315,0.198794,-0.022384,7.232000,2046.851270

-0.689020,1.804781,8.637099,14.874117,-0.120785,-0.001586,-0.006663,7.236000,2046.851270

-0.111820,6.750496,9.187954,14.874117,0.001521,0.134576,-0.046366,7.244000,2046.851270

-1.254244,3.407049,7.894643,14.874117,-0.071756,0.049308,0.026645,7.256000,2046.851270

0.415084,4.927886,8.601173,14.868235,-0.244424,0.122053,-0.108984,7.276000,8.069818

0.594711,2.410721,8.910131,14.871176,0.083325,0.197461,-0.245946,7.300000,8.069818

-3.450477,5.569752,8.100615,14.885881,-0.118653,0.148699,-0.216635,7.296000,8.069818

-2.902018,2.638248,6.962980,14.865294,-0.125848,0.037051,-0.171603,7.304000,8.069818

-2.353559,4.793766,10.407019,14.862352,-0.064561,0.118855,-0.074611,7.316000,8.069818

-2.490075,1.431158,9.717253,14.885881,-0.291587,-0.029831,0.096725,7.316000,8.069818

-1.019533,6.362504,9.336445,14.874117,0.027102,-0.037825,0.122305,7.324000,8.069818

-2.782267,5.117093,5.193061,14.879999,-0.038182,-0.005050,0.171867,7.336000,8.069818

-2.300868,-1.998510,11.175820,14.879999,-0.233499,-0.087920,0.232887,7.340000,8.069818

-1.081803,5.699083,9.228669,14.865294,0.001255,0.097272,0.332011,7.344000,8.069818

-3.282826,-0.104050,9.700488,14.882940,0.171258,0.051973,0.557971,7.356000,8.069818

-2.875673,6.082286,7.535390,14.862352,-0.128246,0.022662,0.488691,7.372000,8.069818

-5.055140,2.755604,10.234577,14.877058,-0.162620,-0.032762,0.487625,7.360000,8.069818

-1.129703,2.535262,6.816884,14.868235,-0.014200,-0.077794,0.097790,7.372000,8.069818

-2.655331,3.921978,10.909973,14.856470,-0.236696,-0.110303,-0.104188,7.384000,8.069818

-3.565438,4.463253,8.970007,14.874117,0.037227,-0.154269,-0.208908,7.380000,8.069818

-4.841984,-1.074032,8.658654,14.877058,-0.115189,-0.235007,-0.286182,7.380000,8.069818

-4.056417,0.310289,12.471525,14.874117,-0.042179,-0.345589,-0.195318,7.380000,8.069818

-4.964129,1.076695,8.225156,14.874117,0.160866,-0.512661,0.033306,7.380000,8.069818

-2.423014,-1.596147,11.666799,14.874117,-0.035783,-0.553163,0.396495,7.384000,8.069818

-2.480494,0.482730,10.656101,14.879999,-0.036849,-0.483084,0.589414,7.380000,8.069818

0.223483,-0.664484,9.520862,14.850588,0.198704,-0.567819,0.716516,7.384000,8.069818

2.297570,0.384534,10.213022,14.859411,-0.098669,-0.514260,0.800452,7.380000,8.069818

5.006337,0.082762,7.034831,14.859411,-0.014733,-0.271246,0.771674,7.360000,8.069818

3.926183,-0.029804,9.504096,14.871176,0.165929,0.042380,0.747160,7.372000,8.069818

4.271066,1.697005,7.959308,14.859411,-0.056567,-0.083124,0.753555,7.360000,8.069818

1.619779,2.049073,8.500583,14.871176,0.164863,0.141771,0.547313,7.364000,8.069818

0.508490,3.387889,7.580895,14.871176,-0.015799,-0.019705,0.259800,7.356000,8.069818

2.417320,-0.554313,10.787827,14.865294,0.100112,0.077287,0.084734,7.352000,8.069818

-0.047155,2.710098,12.284714,14.856470,0.157135,0.051973,0.231555,7.356000,8.069818

-1.256639,-5.722765,8.634704,14.862352,0.002054,0.074356,0.349597,7.356000,8.069818

-4.324659,6.051151,9.640613,14.865294,0.103044,0.390647,0.678146,7.344000,8.069818

0.963544,1.289852,8.213181,14.847647,-0.158889,-0.104973,0.689870,7.340000,8.069818

0.424664,3.213053,7.779682,14.874117,-0.080816,0.121786,0.604869,7.344000,8.069818

-2.030231,4.719520,10.955479,14.856470,0.145411,0.310974,0.331744,7.348000,8.069818

1.770665,2.080208,9.458591,14.877058,-0.195128,0.096739,-0.101790,7.368000,8.069818

-1.797914,2.025123,8.522139,14.865294,0.239472,0.250488,-0.287781,7.368000,8.069818

-0.708180,10.422062,7.631191,14.877058,0.113436,0.159890,-0.340274,7.384000,13.977448

-0.444728,0.276759,6.266029,14.879999,-0.179140,0.089278,-0.444461,7.372000,13.977448

-2.576295,3.771092,12.852334,14.885881,0.002054,0.133244,-0.506546,7.384000,13.977448

-0.792006,2.583162,8.641890,14.868235,0.047086,-0.043687,-0.427141,7.380000,13.977448

-0.380062,4.008199,8.122169,14.862352,-0.203655,0.150298,-0.247811,7.388000,13.977448

0.594711,0.573741,9.082573,14.877058,-0.238561,0.084748,-0.263799,7.392000,13.977448

0.980309,1.304222,7.420429,14.865294,-0.324096,-0.029565,-0.383707,7.404000,13.977448

1.346747,8.539577,8.639494,14.882940,0.154471,0.140971,-0.564369,7.412000,13.977448

-1.254244,-2.757731,11.154264,14.865294,-0.328359,-0.026101,-0.628853,7.400000,13.977448

-1.012347,8.834164,9.518467,14.859411,0.410808,0.183605,-0.576360,7.408000,13.977448

0.285753,-2.566130,6.543852,14.877058,-0.300114,-0.080459,-0.608868,7.420000,13.977448

1.614989,8.314445,12.346985,14.877058,-0.224172,0.094341,-0.462314,7.420000,13.977448

2.098783,1.244346,7.868298,14.879999,0.579478,-0.060208,-0.374115,7.420000,13.977448

1.643729,4.226146,6.962980,14.868235,-0.486105,-0.189176,-0.400228,7.420000,13.977448

2.479591,3.390284,8.548483,14.874117,0.043622,0.128714,-0.236354,7.424000,13.977448

3.411253,0.190538,11.793736,14.868235,-0.093872,0.120187,-0.146289,7.420000,13.977448

-0.650700,-4.815053,12.124248,14.877058,-0.117321,0.265942,-0.377579,7.428000,13.977448

-0.006439,7.265426,6.273214,14.882940,0.173923,0.347746,-0.414617,7.432000,13.977448

2.446061,1.673055,10.323193,14.894705,-0.077352,0.223575,-0.366387,7.424000,13.977448

1.258131,-0.662089,11.283596,14.882940,-0.512485,0.259814,-0.320556,7.412000,13.977448

1.253341,-4.712067,10.318403,14.874117,0.236275,0.464457,-0.027181,7.420000,13.977448

-2.003886,3.169942,10.435759,14.877058,-0.074154,0.267808,-0.153217,7.412000,13.977448

0.659376,-2.834372,7.434799,14.879999,0.198970,0.127115,-0.144690,7.416000,13.977448

-0.935707,1.711375,9.846584,14.865294,-0.066427,0.191333,0.025046,7.396000,13.977448

-2.396669,2.434671,10.174702,14.865294,0.023105,0.195063,0.228623,7.392000,13.977448

-2.423014,1.977222,10.605805,14.894705,-0.095471,0.007740,0.267261,7.392000,13.977448

-0.914152,5.414076,9.901670,14.879999,0.220021,0.168684,0.280051,7.392000,13.977448

-1.524882,1.572464,7.085126,14.885881,0.153139,-0.041022,0.363720,7.400000,13.977448

-1.659003,-0.702804,6.383386,14.877058,-0.058699,0.016267,0.259533,7.392000,13.977448

-2.724787,1.407208,10.850098,14.882940,-0.315036,0.221177,0.159876,7.400000,13.977448

-0.964447,1.608389,11.156660,14.891764,-0.051505,0.272604,-0.031444,7.404000,13.977448

1.021024,6.209222,8.790380,14.877058,0.196039,0.258748,-0.196118,7.408000,13.977448

0.228273,4.159085,8.421547,14.879999,-0.085878,0.203590,-0.174534,7.404000,16.322014

-1.005162,1.879027,10.042975,14.874117,-0.088276,0.177743,-0.331214,7.404000,16.322014

-1.218319,5.035663,10.605805,14.885881,-0.180739,0.212117,-0.368253,7.412000,16.322014

0.589921,4.199801,6.172624,14.874117,0.340995,-0.004517,-0.288047,7.428000,16.322014

-3.364257,2.461016,6.057663,14.871176,-0.070956,0.179875,0.703193,7.424000,16.322014

-4.683912,4.331527,7.825187,14.891764,0.089188,0.164420,1.213202,7.428000,16.322014

-1.527277,2.626273,9.209509,14.894705,-0.115989,-0.185179,1.448489,7.436000,16.322014

-0.526159,4.360267,10.421389,14.891764,0.035895,0.026926,1.301135,7.444000,16.322014

-2.813402,3.066956,8.560458,14.868235,0.048419,0.233967,0.815107,7.448000,16.322014

-1.572782,1.558094,8.093430,14.879999,-0.121584,0.284861,0.201444,7.452000,16.322014

-4.092343,2.288575,9.884905,14.877058,0.049485,0.502828,-0.353597,7.456000,16.322014

-5.610785,4.827296,10.505215,14.877058,-0.228969,0.575305,-0.565168,7.468000,16.322014

-3.388207,-0.013039,10.598620,14.885881,-0.111192,0.065563,-0.941946,7.464000,16.322014

-6.604718,2.801109,9.075388,14.888823,-0.125315,0.111661,-0.838292,7.464000,16.322014

-4.444410,1.395233,11.374607,14.877058,-0.076819,-0.238471,-0.752225,7.468000,16.322014

-0.684230,2.726864,11.127919,14.891764,0.093451,-0.353050,-0.571830,7.468000,16.322014

-0.291447,-1.086008,10.217813,14.879999,0.208829,-0.559825,-0.095928,7.460000,16.322014

-1.941615,-4.659377,9.884905,14.891764,0.159534,-0.688793,0.359989,7.452000,16.322014

0.501305,-0.247751,11.015354,14.865294,-0.111459,-0.339194,0.648568,7.456000,16.322014

3.085531,1.471873,8.644284,14.862352,0.076131,-0.437785,0.531591,7.452000,16.322014

3.492684,1.206026,10.692026,14.856470,-0.044044,-0.057277,0.492954,7.440000,16.322014

-1.244664,0.770133,11.295571,14.853529,0.131821,0.061299,0.415947,7.436000,16.322014

-1.450636,1.031190,7.940148,14.865294,0.172857,-0.018906,0.052225,7.444000,16.322014

0.063016,4.190221,7.437194,14.859411,0.137151,-0.055944,-0.355729,7.440000,16.322014

0.240248,3.538775,8.498188,14.868235,0.003120,0.011204,-0.426341,7.436000,16.322014

-0.689020,0.068392,9.535232,14.865294,-0.052571,0.085547,-0.623523,7.444000,16.322014

-2.372719,2.338870,11.305151,14.865294,-0.105597,0.119122,-0.675217,7.452000,16.322014

-0.348927,4.432117,9.334050,14.868235,-0.028855,0.044778,-0.632850,7.444000,16.322014

-0.269891,2.413116,7.226432,14.853529,-0.022194,-0.025568,-0.702663,7.444000,18.038899

-4.171378,2.722074,8.922107,14.844706,0.056413,0.009339,-0.911569,7.456000,18.038899

-4.619247,3.227422,8.893367,14.877058,0.058811,-0.274444,-1.015756,7.456000,18.038899

-2.171537,6.194852,8.213181,14.888823,-0.064295,-0.274710,-1.002966,7.464000,18.038899

-1.385971,4.487203,8.589199,14.871176,0.106241,-0.281905,-0.621392,7.472000,18.038899

-0.784821,5.780514,8.644284,14.877058,0.155803,-0.366107,-0.320556,7.480000,18.038899

-0.348927,3.476505,9.343630,14.874117,0.082792,-0.507065,-0.029046,7.480000,18.038899

0.177977,4.676410,8.079060,14.885881,0.190177,-0.408208,0.145754,7.492000,18.038899

0.482145,4.942257,4.872128,14.862352,0.031365,-0.427393,0.189187,7.496000,18.038899

-1.601522,1.126991,7.750942,14.853529,-0.165284,-0.379430,0.118574,7.496000,18.038899

-2.408644,-0.527968,15.359920,14.874117,0.050018,-0.288033,0.101787,7.508000,18.038899

0.623451,4.446488,10.435759,14.859411,0.112903,-0.344790,0.082069,7.512000,18.038899

2.144288,3.306458,6.919870,14.879999,0.266918,-0.122826,0.278185,7.512000,18.038899

3.899837,0.698282,8.423943,14.871176,-0.159688,-0.177451,0.350130,7.512000,18.038899

4.043539,3.866893,9.884905,14.871176,-0.167149,0.093275,0.400225,7.504000,18.038899

3.633990,-0.068124,14.037868,14.879999,-0.018730,0.073823,0.359190,7.504000,18.038899

2.822079,4.482413,9.489726,14.838821,0.170991,0.057036,0.580887,7.508000,18.038899

1.828146,-1.447655,9.334050,14.835880,-0.266273,0.300849,0.477766,7.508000,18.038899

-1.424291,-2.087126,11.046489,14.862352,0.027102,0.382120,0.339738,7.500000,18.038899

-2.013466,3.045401,5.147555,14.853529,0.166995,0.236898,0.247542,7.500000,18.038899

-1.271010,-1.948215,12.143408,14.865294,-0.250019,0.224374,0.018385,7.492000,18.038899

-0.521369,-1.897919,12.289504,14.865294,0.119831,0.194797,0.031175,7.496000,18.038899

-0.463888,0.875513,7.916198,14.874117,0.247200,0.293388,-0.289646,7.492000,18.038899

0.441429,4.961417,7.803632,14.862352,0.238406,0.219045,-0.531061,7.496000,18.038899

-0.660280,2.214329,10.304033,14.882940,-0.315036,0.114059,-0.473505,7.496000,18.038899

-0.495023,-0.963862,9.401111,14.865294,-0.026724,0.222509,-0.359992,7.488000,18.038899

-0.095055,1.560489,8.100615,14.865294,0.093184,0.086347,-0.196118,7.484000,18.038899

-0.145350,1.625154,9.039463,14.868235,-0.182604,0.113526,0.107117,7.484000,18.038899

-0.693810,4.420143,8.074269,14.868235,0.038027,0.207587,0.389034,7.492000,18.038899

-1.251849,3.359149,10.244158,14.868235,0.159267,0.180941,0.548112,7.496000,18.038899

-2.219437,3.366334,7.561735,14.885881,0.117965,0.175878,0.727974,7.500000,18.038899

-0.986002,5.610467,7.257567,14.868235,-0.312105,0.313373,0.799386,7.504000,18.038899

-1.249454,3.807017,13.405583,14.868235,-0.099201,0.299783,0.549178,7.516000,18.038899

-0.571664,4.247701,8.661049,14.874117,0.507267,0.475915,0.445257,7.528000,18.038899

-8.008200,2.595137,6.915080,14.871176,-0.153826,0.478046,0.305365,7.524000,18.038899

-4.748578,-2.970888,8.536509,14.871176,-0.387514,-0.040223,-0.093263,7.520000,18.038899

-6.458622,5.090748,4.771537,14.871176,-0.210583,0.127648,-0.373848,7.520000,18.038899

-6.621483,-4.666562,10.589040,14.874117,-0.188999,-0.121494,-0.570764,7.524000,18.038899

-5.594020,-5.856886,13.841476,14.844706,-0.242825,-0.263519,-0.522534,7.528000,18.038899

-3.371442,3.442974,7.856322,14.871176,0.157135,-0.130287,-0.383974,7.520000,18.038899

1.957477,4.882381,6.881549,14.859411,0.261322,-0.729561,-0.356262,7.520000,18.038899

1.068924,-4.788708,11.015354,14.865294,-0.242558,-0.656284,-0.134831,7.520000,18.038899

5.015917,-3.636703,14.612673,14.868235,0.184581,-0.359179,0.156412,7.508000,18.038899

1.191071,1.823941,8.768826,14.877058,0.242403,-0.031963,0.313359,7.516000,18.038899

5.166803,-1.586567,4.649392,14.847647,-0.100267,-0.432722,0.422075,7.504000,18.038899

2.608922,6.934913,9.334050,14.862352,-0.048574,0.277134,0.589414,7.504000,18.038899

0.949174,4.223751,10.756692,14.865294,-0.090142,0.169483,0.360256,7.508000,18.038899

-2.066156,-1.282399,9.058622,14.856470,0.065472,-0.037825,0.020783,7.504000,18.038899

-0.590824,6.568475,9.104128,14.856470,0.129690,-0.009313,-0.307499,7.512000,10.470388

-0.693810,0.995264,9.080178,14.853529,-0.127713,-0.022637,-0.616329,7.504000,10.470388

-0.456703,-1.950610,11.978151,14.862352,0.025237,0.002944,-0.894782,7.508000,10.470388

-1.769174,5.284745,7.252778,14.853529,0.941601,0.063431,-1.029612,7.516000,10.470388

-4.482731,6.465489,7.013276,14.865294,-0.380053,-0.246465,-1.062121,7.508000,10.470388

4.486618,0.841983,11.999706,14.859411,-0.400837,-0.227813,-0.703729,7.504000,10.470388

0.836608,3.203472,9.087363,14.853529,0.439319,-0.012244,-0.395165,7.516000,10.470388

-1.874555,7.169625,7.061176,14.859411,0.163531,-0.415402,-0.506280,7.520000,10.470388

1.207836,3.706426,9.037067,14.847647,-0.069358,-0.490278,-0.730375,7.520000,10.470388

-0.744105,5.569752,8.122169,14.850588,-0.019263,-0.049816,-0.686142,7.532000,10.470388

2.273619,-0.324391,12.318244,14.835880,-0.437875,-0.338395,-0.825769,7.532000,10.470388

1.267711,2.058653,12.727793,14.859411,0.046021,-0.140946,-0.727444,7.540000,10.470388

-2.274523,6.403219,7.724597,14.859411,0.467298,0.062099,-0.547049,7.536000,10.470388

3.344193,5.450001,7.868298,14.868235,-0.311306,-0.484682,-0.141493,7.540000,10.470388

1.852096,3.627391,10.524375,14.871176,0.147543,-0.255258,0.257668,7.540000,10.470388

1.789825,2.413116,10.555510,14.865294,0.164330,-0.406609,0.377043,7.548000,10.470388

1.571879,2.698123,8.366462,14.856470,0.187779,-0.461767,0.456982,7.544000,10.470388

0.841398,-2.252382,9.101733,14.847647,-0.016865,-0.342658,0.565965,7.544000,10.470388

4.441112,-1.967375,7.008485,14.882940,-0.146632,-0.161197,0.773539,7.540000,10.470388

2.350260,-4.137262,8.752060,14.862352,-0.297716,0.132445,0.843619,7.536000,10.470388

2.434086,2.221514,10.909973,14.868235,-0.168215,0.324031,0.670152,7.536000,10.470388

4.529728,1.883817,12.167358,14.847647,0.339129,-0.014376,0.536654,7.528000,10.470388

0.673746,0.715047,8.488607,14.853529,0.165396,0.146034,0.348532,7.532000,10.470388

-1.000372,-5.983822,9.410690,14.835880,-0.269737,0.212117,0.159343,7.524000,10.470388

-1.747618,6.408009,11.477592,14.868235,0.301825,0.619538,0.079404,7.528000,10.470388

-1.055458,2.887330,7.822792,14.829998,-0.113857,0.185204,-0.302969,7.520000,21.603190

0.518070,-1.109958,5.648115,14.859411,-0.196727,0.008540,-0.390635,7.520000,21.603190

-0.109425,4.127950,9.810658,14.859411,-0.055235,0.155360,-0.387171,7.520000,21.603190

-1.886530,0.264784,8.720924,14.859411,-0.380586,0.027991,-0.423943,7.524000,21.603190

-0.557294,2.734049,8.124565,14.847647,0.022572,-0.012244,-0.181729,7.524000,21.603190

-1.362020,6.544525,9.832214,14.841763,0.051883,0.035985,0.136694,7.528000,21.603190

-0.042365,2.267020,8.332932,14.856470,-0.194595,-0.130554,0.577689,7.528000,21.603190

-0.645909,4.297997,9.429851,14.838821,0.138483,-0.057810,1.180960,7.540000,21.603190

-0.708180,1.723350,8.505373,14.844706,0.058278,0.003477,1.529493,7.540000,21.603190

-3.960617,6.281073,8.567643,14.835880,-0.049906,0.297651,1.756519,7.548000,21.603190

-4.173773,0.942574,10.754296,14.847647,-0.136506,0.266209,1.795689,7.540000,21.603190

-3.766620,5.004527,8.088639,14.832939,0.076664,0.460460,1.573726,7.552000,21.603190

-6.312526,5.521852,8.268266,14.847647,-0.151428,0.468720,0.965392,7.552000,21.603190

-3.939061,-2.604450,12.208074,14.835880,-0.252684,0.227039,0.434865,7.556000,21.603190

-4.173773,-1.047687,10.390254,14.832939,0.031365,0.347746,0.158544,7.556000,21.603190

-4.782108,2.580767,10.222602,14.841763,-0.076286,0.197728,-0.133233,7.560000,21.603190

-4.863539,1.668265,9.123288,14.821175,-0.200724,0.082350,-0.433003,7.552000,21.603190

-1.311725,-0.966257,10.059741,14.841763,-0.182338,-0.144943,-0.585686,7.552000,21.603190

0.192347,-0.446537,11.010564,14.841763,-0.189532,-0.070600,-0.563836,7.548000,21.603190

2.695143,2.192774,9.446616,14.835880,0.077730,-0.061007,-0.569965,7.548000,21.603190

-0.324977,-0.499228,7.750942,14.818233,-0.059499,-0.001320,-0.475637,7.540000,21.603190

1.689234,-5.727555,15.036592,14.835880,-0.353407,-0.156667,-0.526531,7.544000,21.603190

0.877323,2.089788,10.579460,14.832939,0.107307,0.044246,-0.568632,7.536000,21.603190

-1.146469,2.432276,7.494675,14.832939,0.008982,-0.203298,-0.605404,7.536000,21.603190

-1.800309,0.968919,9.985496,14.829998,-0.020329,-0.270447,-0.713055,7.528000,21.603190

-1.876950,-0.626164,10.986613,14.818233,0.104109,-0.448177,-0.686409,7.528000,21.603190

-1.453031,2.247860,9.396320,14.841763,0.080128,-0.496407,-0.597677,7.528000,21.603190

-2.461334,1.936507,8.744875,14.847647,-0.017397,-0.556627,-0.400228,7.532000,21.603190

-3.273246,-0.434562,9.930409,14.838821,0.286903,-0.729828,-0.125239,7.540000,21.603190

-3.378627,-0.041779,12.485896,14.844706,0.237607,-0.866790,0.324816,7.536000,21.603190

-1.072223,3.699241,10.802197,14.821175,0.204033,-0.815629,0.845218,7.532000,21.603190

0.853373,2.384376,8.893367,14.832939,0.217090,-0.796177,1.249708,7.540000,21.603190

0.656981,4.190221,6.618097,14.829998,0.421466,-0.667476,1.652599,7.544000,21.603190

0.939593,5.727823,7.633585,14.841763,0.352719,-0.598462,1.872430,7.548000,21.603190

2.479591,-1.337485,7.101892,14.818233,0.148875,-0.559025,1.830063,7.556000,21.603190

3.612435,7.900105,7.334208,14.824116,0.561892,-0.109770,1.732271,7.564000,21.603190

4.426742,6.532550,7.973679,14.832939,-0.181272,-0.023436,1.368816,7.568000,21.603190

5.248234,-0.422587,11.063254,14.815292,0.131289,0.112726,1.240115,7.568000,21.603190

3.181332,1.874237,11.156660,14.827057,0.481953,0.257682,1.110881,7.568000,21.603190

3.047211,4.748260,9.468171,14.835880,0.226682,0.476181,0.729839,7.580000,21.603190

4.788390,2.319710,8.440707,14.824116,0.138483,0.688552,0.537187,7.584000,21.603190

3.945343,5.761353,8.867022,14.818233,0.120364,0.881204,0.353061,7.584000,21.603190

3.406464,1.246742,10.172307,14.838821,0.091586,0.710668,0.161475,7.576000,21.603190

1.986217,1.088670,8.395202,14.818233,0.085990,0.778083,0.079937,7.572000,21.603190

-1.218319,-0.056149,9.904064,14.829998,-0.426684,0.672831,0.087931,7.564000,21.603190

-2.363138,1.033585,0.611388,14.829998,-0.158889,0.695480,0.117509,7.564000,21.603190

-2.691256,3.648946,2.699846,14.818233,-0.338751,0.335755,-0.081539,7.556000,21.603190

-3.479218,-1.050082,23.038351,14.827057,-0.554852,0.478846,-0.238219,7.560000,21.603190

-0.911757,-7.435204,23.440716,14.806469,0.023105,0.137507,-0.191321,7.564000,10.844940

4.951251,-5.389857,15.647322,14.824116,0.087855,0.260080,-0.196651,7.568000,10.844940

2.517911,-2.491884,7.674301,14.835880,0.836881,0.526809,0.193983,7.560000,10.844940

-1.417106,-3.459472,12.143408,14.821175,-0.042711,0.339752,0.358657,7.552000,10.844940

1.734740,2.705308,8.253896,14.827057,0.584008,0.629930,0.294440,7.552000,10.844940

0.769547,9.016185,-0.748983,14.821175,-0.120785,0.420224,0.315490,7.540000,10.844940

-1.869765,1.610784,9.010722,14.835880,-0.428549,0.572907,0.059953,7.548000,10.844940

-1.805099,2.810689,12.509846,14.844706,0.116100,0.589961,-0.257671,7.556000,10.844940

-2.037416,5.725428,9.530441,14.850588,-0.039780,0.580102,-0.306966,7.560000,10.844940

-0.871041,3.229818,9.575947,14.832939,-0.185269,0.402371,-0.294442,7.560000,10.844940

0.752782,-3.588803,13.642690,14.838821,0.072134,0.415161,-0.410087,7.572000,10.844940

1.016234,-3.088244,6.613307,14.821175,0.702318,0.457795,-0.501484,7.584000,10.844940

2.082018,18.708828,0.163520,14.824116,1.398584,0.787942,-0.663759,7.588000,10.844940

-7.672897,16.256329,11.628479,14.835880,-0.318500,0.905985,-0.562770,7.576000,10.844940

-10.228383,-1.933844,15.225798,14.829998,-0.645183,0.069559,-0.928890,7.576000,10.844940

-3.472033,-7.863913,6.797724,14.835880,0.139815,-0.415935,-1.094096,7.576000,10.844940

-5.893397,4.216566,13.750466,14.838821,-0.707535,0.299517,-0.762883,7.576000,10.844940

-6.894516,0.391720,11.297966,14.835880,0.344459,-0.089785,-0.922761,7.580000,10.844940

-8.242911,-7.396884,8.376042,14.818233,-0.106662,-0.645626,-1.026681,7.584000,10.844940

0.800682,1.541329,8.996352,14.818233,0.134486,-0.728762,-1.004831,7.580000,10.844940

5.679337,4.482413,7.418034,14.827057,0.156070,-0.834814,-0.660295,7.576000,10.844940

5.626647,1.347332,9.171188,14.821175,0.304223,-0.510529,-0.264599,7.580000,10.844940

5.281764,3.538775,10.768666,14.809410,0.100379,-0.105773,-0.147888,7.580000,10.844940

1.698815,4.056099,9.640613,14.818233,-0.013933,-0.025301,0.073009,7.576000,21.937353

0.580340,-1.224919,9.858560,14.847647,-0.107728,-0.151071,-0.003465,7.564000,21.937353

-2.178722,1.026400,9.853769,14.827057,0.257325,0.004010,-0.302969,7.576000,21.937353

-3.572623,2.669383,9.446616,14.824116,0.170459,-0.241136,-0.410354,7.572000,21.937353

-3.519933,0.892279,9.238249,14.815292,0.038293,-0.317078,-0.394899,7.568000,21.937353

-3.122360,1.864656,10.895603,14.806469,0.059877,-0.306153,-0.342939,7.572000,21.937353

-2.581085,1.349727,9.947175,14.827057,0.116900,-0.314679,-0.254207,7.572000,21.937353

1.021024,3.349569,8.371252,14.812351,0.077463,-0.399414,-0.099125,7.572000,21.937353

1.241366,2.393956,10.078901,14.841763,-0.042711,-0.358646,-0.003199,7.576000,21.937353

1.837726,2.094578,9.968730,14.850588,0.244802,-0.304820,0.023714,7.576000,21.937353

1.797010,4.070470,7.851532,14.838821,0.180851,-0.260588,0.019184,7.576000,21.937353

1.322797,3.289693,8.098220,14.824116,-0.015532,-0.099111,0.070878,7.580000,21.937353

-0.214806,1.761671,10.263317,14.818233,-0.125848,0.025327,0.150550,7.576000,21.937353

0.618661,6.103841,10.486054,14.809410,0.113702,-0.009313,0.154280,7.580000,21.937353

2.206559,4.444093,7.772497,14.821175,-0.041912,0.089278,0.145754,7.588000,21.937353

2.958595,4.036940,10.989009,14.829998,-0.087477,0.150298,0.158810,7.588000,21.937353

2.898720,7.469002,7.889853,14.827057,0.031632,0.149765,0.008792,7.592000,21.937353

3.143012,1.354517,8.543694,14.829998,-0.087211,0.186270,-0.254473,7.596000,21.937353

1.119220,-0.944701,11.925461,14.824116,-0.214313,0.267541,-0.533193,7.596000,21.937353

1.694025,3.778277,10.893208,14.821175,-0.150096,0.512687,-0.768479,7.600000,21.937353

2.505936,1.637130,10.941108,14.812351,0.083325,0.370129,-0.943811,7.600000,21.937353

2.750228,-0.492043,9.441826,14.827057,-0.104264,0.264876,-1.031211,7.596000,21.937353

0.934803,-3.892971,10.572275,14.815292,-0.153027,0.290990,-1.002966,7.588000,21.937353

-0.277076,-1.023737,9.207114,14.818233,-0.078151,0.306978,-0.826035,7.588000,21.937353

-1.158444,-0.302836,9.144843,14.829998,0.028967,0.240095,-0.721848,7.580000,21.937353

-1.896110,-0.597424,10.806987,14.827057,-0.004607,0.103400,-0.802053,7.580000,21.937353

-3.349886,0.621641,10.500424,14.829998,0.305822,0.112726,-0.783401,7.584000,21.937353

-0.360902,1.395233,9.286150,14.827057,0.040425,-0.072199,-0.617928,7.580000,21.937353

-0.629144,0.360584,10.553115,14.821175,0.072933,-0.032496,-0.395432,7.576000,21.937353

-0.614774,2.796319,10.251343,14.829998,0.118765,-0.111901,-0.077275,7.576000,21.937353

-1.103358,2.049073,8.325747,14.824116,0.215224,-0.026367,0.414614,7.580000,21.937353

-1.594337,3.411839,8.605964,14.835880,-0.058166,0.014935,0.833493,7.580000,21.937353

-0.990792,3.505245,9.401111,14.850588,0.087855,0.126849,1.018951,7.576000,21.937353

-0.823141,4.060890,8.177256,14.835880,0.080927,0.209186,1.059187,7.580000,21.937353

-1.405131,4.671619,7.779682,14.815292,-0.106396,0.327229,0.878259,7.584000,21.937353

-1.357230,4.549474,9.714858,14.809410,-0.121051,0.403171,0.536921,7.584000,21.937353

-1.194369,3.790252,10.462104,14.827057,0.136884,0.414095,0.069545,7.588000,21.937353

-3.357072,3.445369,5.789421,14.821175,0.099580,0.356540,-0.334145,7.600000,21.937353

-3.060089,3.538775,9.111313,14.812351,-0.153293,0.271805,-0.627520,7.600000,21.937353

-4.432436,0.518656,8.795171,14.815292,-0.135707,0.378123,-0.812179,7.600000,21.937353

-3.129545,0.968919,8.744875,14.809410,-0.040846,0.151363,-0.977386,7.604000,21.937353

-6.044283,-0.484858,11.367421,14.818233,-0.053103,0.125783,-1.059190,7.604000,21.937353

-6.686149,-2.149396,11.319521,14.827057,-0.214047,-0.128689,-1.207343,7.604000,21.937353

-4.305500,-0.947096,13.166081,14.812351,0.044422,-0.300290,-1.173502,7.604000,21.937353

-2.375113,0.042047,11.494358,14.835880,0.425996,-0.346122,-1.027214,7.608000,21.937353

-2.384694,-2.309863,8.203601,14.818233,0.259723,-0.578477,-1.090366,7.596000,21.937353

-2.605036,-1.488371,10.670471,14.821175,0.209629,-0.597929,-0.994706,7.588000,11.153061

-0.198041,-0.844111,9.674143,14.821175,0.227482,-0.768198,-0.941680,7.580000,11.153061

-0.775241,2.029913,10.677656,14.827057,0.393221,-0.688526,-0.726112,7.580000,11.153061

1.341957,-1.679972,8.153305,14.803528,0.399350,-0.678401,-0.643508,7.580000,11.153061

-0.722550,1.689820,7.928173,14.821175,0.194973,-0.715972,-0.229159,7.572000,11.153061

-1.560807,5.617652,6.323510,14.821175,0.493145,-0.662679,0.115110,7.572000,11.153061

-0.078290,5.153018,10.517190,14.821175,0.165929,-0.626973,0.439395,7.576000,11.153061

0.858163,2.652618,10.375883,14.812351,0.193108,-0.648557,0.719447,7.576000,11.153061

-0.837511,5.730218,8.213181,14.824116,0.306088,-0.627240,0.933417,7.580000,11.153061

-1.675768,2.255045,6.960585,14.815292,0.202434,-0.563022,0.915564,7.576000,11.153061

-3.074459,1.112620,7.976073,14.821175,0.092385,-0.499604,0.868666,7.588000,11.153061

-2.887648,0.353399,8.625124,14.809410,0.076930,-0.544636,0.873996,7.580000,11.153061

-1.979935,3.268138,8.213181,14.824116,0.051616,-0.441249,0.727175,7.584000,11.153061

-0.523764,4.690780,8.275451,14.841763,-0.011535,-0.386358,0.445257,7.580000,11.153061

0.886903,1.891002,9.908854,14.809410,0.087322,-0.447378,0.278985,7.588000,11.153061

-0.756080,5.682318,10.759087,14.812351,0.036694,-0.408474,0.278452,7.592000,11.153061

-1.043483,5.083563,11.058464,14.794704,0.013512,-0.220885,0.266195,7.592000,11.153061

0.221088,3.854918,7.980864,14.800587,0.160866,-0.268848,0.390899,7.600000,11.153061

0.642611,4.259676,8.491003,14.800587,-0.103198,-0.304554,0.417012,7.600000,11.153061

0.985099,1.368887,12.885864,14.818233,0.072933,-0.206496,0.483362,7.608000,11.153061

2.283200,2.714888,11.520702,14.812351,-0.043511,-0.280039,0.482562,7.612000,11.153061

3.344193,3.280113,9.377160,14.794704,0.170991,-0.180116,0.456715,7.608000,11.153061

1.751505,0.274364,8.095824,14.809410,0.041491,-0.008248,0.731705,7.608000,11.153061

4.242325,-1.428495,9.089758,14.827057,-0.202322,0.141771,0.980847,7.612000,11.153061

2.630477,-0.262121,13.360078,14.827057,-0.111992,0.331759,1.101288,7.608000,11.153061

2.956200,1.239557,11.022539,14.821175,0.082792,0.430616,1.057322,7.604000,11.153061

0.656981,-1.167438,8.881392,14.809410,0.000455,0.456197,0.935548,7.596000,11.153061

-3.778595,0.410880,12.859519,14.815292,-0.077618,0.733318,0.599273,7.592000,11.153061

-1.247059,0.710257,11.056069,14.821175,-0.054436,0.542530,0.220630,7.596000,11.153061

-1.987120,2.547237,7.013276,14.824116,0.281840,0.685887,-0.086602,7.596000,11.153061

-3.239716,3.886053,8.869416,14.806469,-0.040047,0.346148,-0.226494,7.588000,11.153061

-0.018414,-1.442865,9.724438,14.812351,-0.045110,0.125517,-0.227027,7.592000,11.153061

0.783917,8.127633,9.355605,14.806469,0.205099,0.507357,-0.241416,7.596000,11.153061

1.444943,1.977222,9.396320,14.815292,-0.151162,0.209719,-0.095661,7.592000,11.153061

2.431691,0.992869,7.935358,14.827057,-0.051238,0.312040,0.077539,7.600000,11.153061

3.111876,4.377032,8.292216,14.815292,0.181384,0.381321,0.229689,7.596000,11.153061

1.991007,4.822506,8.208390,14.803528,-0.159422,0.464457,0.481496,7.600000,11.153061

3.030446,4.853641,9.484936,14.800587,0.003653,0.608347,0.472970,7.596000,11.153061

1.200651,4.968602,6.318720,14.800587,-0.064828,0.624068,0.355726,7.600000,11.153061

-0.696205,2.549632,10.629756,14.806469,-0.150096,0.701342,0.038902,7.608000,11.153061

-1.373995,4.956627,8.924501,14.806469,0.167794,0.841501,-0.239285,7.612000,11.153061

-6.022728,6.369689,10.989009,14.812351,-0.166616,0.633128,-0.362923,7.608000,11.153061

-0.871041,0.521051,11.942226,14.800587,-0.098669,0.231835,-0.682678,7.620000,11.153061

-1.944010,1.855076,6.062453,14.806469,0.214958,0.394111,-0.981383,7.620000,11.153061

-6.669384,5.438026,8.869416,14.791763,-0.174610,0.206521,-0.948874,7.624000,11.153061

-3.206185,-2.027250,10.593830,14.800587,-0.233499,-0.101243,-0.850017,7.620000,11.153061

-7.009476,-1.703923,10.325588,14.809410,0.266918,0.127648,-0.782069,7.624000,11.153061

-7.749537,1.330567,8.138935,14.797646,0.092652,-0.177451,-0.770078,7.624000,11.153061

-3.119965,-1.148278,9.001143,14.803528,-0.185802,-0.670673,-0.714121,7.620000,11.027317

-1.021928,-1.936239,10.239367,14.794704,0.081194,-0.488946,-0.667490,7.616000,11.027317

-0.894992,-2.731386,9.458591,14.794704,0.336731,-0.522254,-0.681346,7.608000,11.027317

2.946620,0.506680,6.278005,14.809410,0.060143,-0.482018,-0.376513,7.612000,11.027317

4.738094,4.221356,9.607082,14.794704,0.004719,-0.524385,-0.130568,7.608000,11.027317

6.948698,3.756722,10.565090,14.788822,0.019374,-0.414603,0.100189,7.600000,11.027317

3.162172,4.642879,10.059741,14.785881,0.351387,-0.250728,0.182525,7.600000,11.027317

-4.504286,1.359308,10.584250,14.809410,0.031898,-0.215289,0.052492,7.596000,11.027317

-0.020809,-3.138539,9.401111,14.812351,0.047353,-0.375966,-0.292844,7.596000,11.027317

0.326468,-1.636862,14.021103,14.800587,0.172590,-0.131620,-0.329082,7.600000,11.027317

-1.570387,3.912398,10.196257,14.809410,0.431325,-0.120695,-0.289913,7.600000,11.027317

-1.785939,3.098092,7.322233,14.797646,0.001521,-0.369571,-0.454053,7.596000,11.027317

-0.942892,5.083563,7.647956,14.800587,0.259191,-0.275509,-0.389836,7.596000,11.027317

-1.316515,2.008358,8.198811,14.785881,-0.022460,-0.550765,-0.141759,7.592000,11.027317

-1.627867,3.936348,7.894643,14.777058,0.367641,-0.447911,-0.085269,7.600000,11.027317

-1.747618,5.849969,7.988049,14.800587,0.231745,-0.579010,-0.041569,7.600000,11.027317

-0.808771,5.339830,9.611873,14.797646,0.125959,-0.638698,0.197447,7.608000,11.027317

-0.449518,4.841666,6.563012,14.812351,0.219488,-0.555561,0.490023,7.612000,11.027317

0.154027,5.279954,7.707831,14.806469,0.114501,-0.524652,0.563833,7.616000,11.027317

0.652191,5.627233,8.292216,14.803528,0.195772,-0.579543,0.497751,7.620000,11.027317

1.346747,2.413116,7.729386,14.797646,0.043622,-0.516924,0.449787,7.620000,11.027317

0.736017,3.043006,10.059741,14.812351,-0.126381,-0.322940,0.682409,7.624000,11.027317

1.995797,7.519298,10.866862,14.791763,0.082526,-0.233675,0.818305,7.628000,11.027317

5.358405,2.810689,12.473921,14.800587,-0.486904,-0.280039,0.861472,7.620000,11.027317

5.748793,-3.006813,12.562536,14.812351,-0.181272,-0.008248,1.109548,7.616000,11.027317

2.889139,-3.490607,10.157937,14.800587,0.161932,0.156426,1.259833,7.612000,11.027317

1.203046,-0.468093,8.735295,14.791763,-0.151428,0.357073,0.867601,7.604000,11.027317

-0.370482,-4.312099,9.278965,14.797646,0.157668,0.354408,0.860140,7.604000,11.027317

-7.090907,0.444410,10.998589,14.806469,0.206964,0.239296,0.804182,7.596000,11.027317

-6.312526,-2.190112,8.881392,14.779999,-0.080283,0.216647,0.419411,7.596000,11.027317

-1.148864,1.960457,7.130631,14.809410,0.012713,0.293654,0.206241,7.592000,11.027317

2.031722,4.115975,7.219247,14.794704,-0.116522,0.319501,0.242480,7.596000,11.027317

3.715421,2.700518,10.327983,14.785881,-0.057367,0.285927,0.321619,7.588000,11.027317

2.632872,1.028795,12.354170,14.777058,0.179785,0.346947,0.238216,7.596000,11.027317

2.561022,4.029754,8.586803,14.791763,0.152339,0.508157,0.166804,7.600000,11.027317

2.551442,4.099210,8.308981,14.791763,-0.066427,0.556386,0.227291,7.600000,11.027317

2.213744,3.718402,9.827424,14.806469,-0.036849,0.679226,0.168137,7.596000,11.027317

0.668956,3.157967,10.720766,14.782940,0.062808,0.710402,-0.079940,7.604000,11.027317

-0.768055,4.544683,8.047924,14.788822,0.089720,0.646184,-0.243282,7.608000,11.027317

-1.685348,5.318275,4.730822,14.818233,-0.052304,0.613942,-0.337876,7.608000,11.027317

-2.729577,5.196129,7.671906,14.800587,-0.265741,0.666968,-0.431138,7.616000,11.027317

-0.744105,3.605836,9.429851,14.812351,-0.009404,0.626733,-0.443128,7.624000,11.027317

-2.597850,4.053705,8.773615,14.821175,0.109705,0.632861,-0.540387,7.624000,11.027317

-4.659962,2.930440,7.674301,14.800587,-0.237495,0.464457,-0.589683,7.628000,11.027317

-1.637448,0.499495,9.396320,14.812351,-0.216711,0.363201,-0.583821,7.632000,11.027317

-0.626749,2.283785,10.220207,14.797646,0.416137,0.402904,-0.682412,7.644000,11.027317

-6.827455,6.834322,9.283754,14.809410,0.210961,0.361069,-0.545184,7.640000,11.027317

-9.521852,0.695887,8.526928,14.797646,-0.200191,-0.114566,-0.367720,7.640000,11.027317

-4.075578,-4.436640,11.139894,14.824116,0.198704,-0.352251,-0.524666,7.636000,10.963047

-5.701796,0.221673,9.326865,14.794704,0.245335,-0.288566,-0.517738,7.640000,10.963047

-4.245624,-1.198573,8.807145,14.821175,-0.081348,-0.604324,-0.382375,7.632000,10.963047

-3.021769,-1.835649,9.001143,14.812351,-0.020595,-0.689326,-0.253141,7.624000,10.963047

-1.450636,-2.386503,6.778563,14.791763,0.030832,-0.837212,-0.238485,7.620000,10.963047

1.021024,0.200118,17.393291,14.800587,-0.029388,-0.553696,-0.076476,7.616000,10.963047

4.893771,6.319393,12.315849,14.794704,0.240805,-0.293096,0.393830,7.624000,10.963047

1.052159,-1.775773,4.608676,14.812351,0.096915,-0.353849,0.923558,7.616000,10.963047

-3.563043,0.614456,8.847861,14.782940,0.157935,0.141504,0.826832,7.616000,10.963047

-0.413593,7.061849,14.124089,14.806469,0.005518,-0.244067,0.708256,7.612000,10.963047

3.301083,4.369847,9.348420,14.774117,0.095316,-0.130287,0.731705,7.616000,10.963047

0.046251,3.407049,8.364067,14.785881,0.150740,-0.043687,0.510008,7.612000,10.963047

-2.008676,1.246742,8.675420,14.794704,0.092385,0.008007,0.128967,7.612000,10.963047

-2.976264,3.081326,6.524692,14.803528,0.193641,-0.019972,-0.216369,7.616000,10.963047

-1.766779,2.290970,9.743598,14.797646,-0.174610,-0.011712,-0.296841,7.612000,10.963047

-0.808771,1.996382,6.579777,14.791763,0.146477,-0.037026,-0.215037,7.624000,10.963047

-0.921337,3.998619,7.080336,14.782940,-0.441606,-0.152404,-0.285383,7.620000,10.963047

0.201927,-3.548088,14.430652,14.777058,0.028168,-0.069534,-0.255805,7.628000,10.963047

0.261803,10.302311,5.173901,14.788822,1.268284,0.110595,-0.271527,7.632000,10.963047

-2.504445,6.499020,5.087680,14.779999,-1.020096,-0.388756,-0.508145,7.624000,10.963047

2.175424,-4.230668,10.790222,14.797646,0.074799,0.039982,-0.074344,7.624000,10.963047

-3.529513,10.637613,9.168794,14.797646,0.456906,0.298984,0.063683,7.640000,10.963047

3.375329,2.700518,8.922107,14.794704,-0.651845,-0.089785,-0.103922,7.636000,10.963047

-0.289052,-4.633031,16.078424,14.803528,-0.368062,0.221710,-0.162011,7.636000,10.963047

1.277291,5.552987,7.137816,14.788822,0.234676,0.304846,-0.082871,7.640000,10.963047

0.391134,-1.234499,14.576748,14.803528,-0.958809,0.172148,-0.101524,7.628000,10.963047

1.823356,1.668265,12.272739,14.812351,0.266119,0.357872,0.129233,7.636000,10.963047

1.004259,-2.798447,2.539379,14.794704,-0.190065,0.223575,-0.042369,7.632000,10.963047

-1.934430,2.365216,9.769943,14.800587,-0.283061,0.495367,-0.120975,7.632000,10.963047

3.418439,2.434671,12.421230,14.821175,-0.119186,0.245425,0.159876,7.632000,10.963047

1.571879,2.633458,10.258528,14.797646,0.132088,0.500163,0.108982,7.620000,10.963047

-0.454308,-5.056950,13.647480,14.800587,-0.079483,0.063431,-0.248611,7.620000,10.963047

-2.339188,-0.549523,9.518467,14.812351,0.532315,0.161756,-0.459649,7.628000,10.963047

-2.514025,6.290653,2.575305,14.797646,-0.028589,0.087412,-0.597144,7.624000,10.963047

-2.257758,4.968602,6.972560,14.791763,-0.211382,0.048775,-0.811380,7.612000,10.963047

0.716857,0.530631,4.802673,14.788822,0.298094,0.050108,-0.962464,7.620000,10.963047

-3.067274,7.140885,14.677339,14.809410,-0.498096,-0.317078,-0.364256,7.612000,10.963047

7.303160,1.160521,6.857599,14.788822,0.072400,0.022396,0.672284,7.616000,10.963047

1.662889,4.484808,7.379714,14.803528,0.231212,-0.046618,1.112746,7.620000,10.963047

-6.587953,6.031991,18.432730,14.800587,0.043889,0.543596,1.105285,7.620000,10.963047

3.710631,2.187984,2.862707,14.800587,0.786786,-0.091384,0.675481,7.624000,10.963047

-2.466124,4.154295,2.855522,14.779999,-0.208185,-0.129488,0.695999,7.628000,10.963047

-3.974987,1.323382,11.230906,14.812351,-0.524209,0.721060,0.069012,7.620000,10.963047

0.089361,-1.689553,14.480947,14.800587,0.081727,0.239296,-0.822571,7.632000,10.963047

-6.137689,6.530155,5.370292,14.797646,0.489947,0.675229,-1.263300,7.640000,10.963047

-10.887013,8.982655,2.158571,14.794704,-0.062963,-0.138814,-1.627288,7.636000,10.963047

-5.531749,-3.186440,15.565891,14.806469,-0.814120,-0.963516,-1.547882,7.636000,11.192887

-0.214806,-0.264516,11.487172,14.785881,0.488348,-0.018640,-1.074378,7.640000,11.192887

-5.562884,3.126832,5.990602,14.794704,0.139016,-0.612318,-0.483631,7.644000,11.192887

-1.680558,10.388532,-4.885181,14.794704,0.502471,-0.800707,0.020516,7.636000,11.192887

11.202251,-14.474167,30.163534,14.791763,-0.041912,-0.593399,1.033074,7.636000,11.192887

12.064459,3.129227,14.500107,14.806469,1.475325,0.291789,1.433300,7.652000,11.192887

-7.656132,8.953915,-9.897957,14.777058,0.043622,-0.613384,1.652866,7.636000,11.192887

-2.482889,1.776041,8.948452,14.779999,-0.748837,-0.410339,1.107417,7.604000,11.192887

-0.966842,-8.944066,20.260130,14.779999,0.261589,0.104733,0.597940,7.616000,11.192887

2.905905,1.785621,3.887775,14.806469,0.548036,-0.303222,0.759683,7.612000,11.192887

-1.982330,4.499178,-3.019461,14.791763,-0.275866,0.213982,0.897977,7.592000,11.192887

-3.752250,-2.954123,13.005615,14.777058,-0.633192,-0.234474,0.612862,7.592000,11.192887

3.461549,-4.283359,21.325912,14.788822,-0.049373,0.010938,0.490023,7.592000,11.192887

2.311940,-0.820160,4.527246,14.791763,0.129423,-0.102309,0.190519,7.600000,11.192887

1.658099,3.280113,5.803791,14.791763,0.312483,0.170549,0.013322,7.596000,11.192887

2.503541,4.899147,8.780800,14.803528,-0.473048,0.340285,-0.110317,7.584000,11.192887

-0.358507,-1.138698,4.900868,14.788822,0.241604,0.468720,-0.493490,7.592000,11.192887

-7.931559,11.540536,9.626243,14.788822,0.801175,0.654978,-1.001900,7.600000,11.192887

-5.280272,8.750338,19.464983,14.771175,-0.434944,-0.169457,-1.665392,7.596000,11.192887

5.377565,-4.786313,7.590475,14.797646,-1.126947,-0.568618,-1.704295,7.592000,11.192887

3.339403,-0.235776,5.255331,14.800587,0.459837,0.451667,-1.413585,7.600000,11.192887

-8.638090,11.011236,3.794369,14.791763,0.521390,0.266209,-1.336311,7.616000,11.192887

-5.277877,4.810531,12.277529,14.785881,-0.716595,-0.338928,-1.285150,7.604000,11.192887

2.608922,-5.399437,23.895769,14.791763,-0.676626,-0.309350,-1.354963,7.608000,11.192887

-0.303422,-0.920751,10.526770,14.785881,1.420434,0.122586,-0.618994,7.632000,11.192887

0.973124,4.889566,0.510798,14.797646,-1.081116,-1.080493,0.764480,7.620000,11.192887

3.461549,-1.517111,19.862556,14.800587,0.050284,-0.181182,0.649634,7.616000,11.192887

3.756136,-0.573473,10.457314,14.791763,0.859797,-0.088719,0.697598,7.632000,11.192887

1.979032,3.816597,0.901186,14.777058,-0.242292,-0.218486,0.638976,7.624000,11.192887

3.614830,3.670501,9.444221,14.777058,-0.085612,0.227838,0.652032,7.616000,11.192887

5.514081,2.020333,8.946056,14.794704,0.666345,0.052506,0.480164,7.620000,11.192887

-0.119005,2.403536,10.510005,14.779999,-0.154093,0.121520,0.161475,7.616000,11.192887

-0.559689,0.391720,13.484619,14.794704,-0.066960,0.100203,-0.057024,7.612000,11.192887

-1.175209,0.578531,4.388334,14.797646,0.177120,0.143903,-0.279254,7.612000,11.192887

-2.712811,-4.791102,10.950688,14.803528,-0.183137,-0.134551,-0.155349,7.604000,11.192887

-4.154613,0.655172,12.507451,14.788822,0.043089,0.027725,-0.038105,7.604000,11.192887

-2.094896,12.488963,8.929292,14.797646,0.422532,0.049575,-0.011193,7.608000,11.192887

1.528768,-6.731069,11.372211,14.782940,-0.801330,-0.792980,0.052758,7.588000,11.192887

-1.290170,-2.623610,13.384028,14.785881,0.030832,0.034653,0.520400,7.584000,11.192887

1.313216,-0.755495,4.639812,14.782940,0.281573,-0.051681,0.746094,7.596000,11.192887

2.355050,9.020975,5.901987,14.777058,0.172324,0.240895,0.839622,7.588000,11.192887

-3.385812,3.706426,11.324311,14.794704,-0.219376,0.147100,0.924357,7.580000,11.192887

2.007772,-1.359040,10.612990,14.782940,-0.040580,-0.023969,0.922225,7.588000,11.192887

2.798129,5.373360,7.621611,14.779999,0.361512,0.394111,0.877993,7.604000,11.192887

-1.443451,7.643839,6.122328,14.779999,0.024970,0.401305,0.610464,7.600000,11.192887

-3.742670,2.113739,7.992838,14.788822,-0.228169,0.356806,0.256336,7.600000,11.192887

0.640216,6.968443,11.259645,14.785881,0.123295,0.340818,-0.035174,7.612000,11.192887

-0.138165,4.331527,7.662326,14.782940,0.039892,0.310442,-0.063686,7.616000,11.192887

-2.183512,2.875355,9.381950,14.791763,0.054814,0.264876,-0.232890,7.624000,11.192887

-4.142638,5.952955,7.748547,14.774117,0.159001,0.387716,-0.322687,7.632000,11.192887

-2.588270,3.385494,8.471843,14.782940,-0.245489,0.190001,-0.159612,7.628000,10.189004

-3.680399,3.165152,10.993798,14.779999,0.085990,0.257948,0.005061,7.640000,10.189004

-5.955668,4.391402,10.332773,14.794704,0.029766,0.128981,-0.037306,7.636000,10.189004

-5.598810,-1.759008,7.820397,14.785881,0.128624,-0.207029,0.060219,7.640000,10.189004

-5.682635,0.291129,7.700646,14.782940,0.110771,-0.346122,-0.120975,7.636000,10.189004

-1.551227,0.818033,10.589040,14.788822,-0.045909,-0.678667,-0.010926,7.632000,10.189004

-1.424291,-5.116825,12.672708,14.791763,-0.149829,-0.313880,0.025579,7.624000,10.189004

-0.061525,-5.179096,15.036592,14.765293,0.027901,-0.381561,0.070078,7.624000,10.189004

8.855132,4.317157,4.534431,14.762352,0.396152,-0.050082,0.300035,7.628000,10.189004

4.532123,0.633617,2.812411,14.779999,0.002587,-0.059675,0.474035,7.612000,10.189004

1.504818,1.376073,6.357040,14.756470,-0.222574,0.110328,0.695999,7.608000,10.189004

-1.994306,2.607113,10.759087,14.750587,-0.100534,0.123918,0.533723,7.604000,10.189004

0.640216,1.325777,13.103810,14.771175,0.136085,0.005076,0.358924,7.604000,10.189004

-1.342860,-1.507531,7.906618,14.782940,0.070802,0.107131,0.148951,7.604000,10.189004

-4.604877,7.128910,5.901987,14.771175,-0.149829,0.128448,-0.252608,7.600000,10.189004

-4.456386,-1.035712,11.626083,14.771175,-0.440540,-0.154802,-0.817508,7.592000,10.189004

1.219811,-7.480710,23.900558,14.777058,-0.101067,-0.217687,-0.877729,7.600000,10.189004

1.164725,-3.138539,16.186201,14.771175,0.798244,0.257149,-0.501484,7.612000,10.189004

-6.746024,10.982496,5.521178,14.782940,0.717240,0.081817,-0.147888,7.616000,10.189004

-0.746500,6.106236,0.319196,14.768234,-0.160754,-0.498006,0.262997,7.608000,10.189004

1.947897,6.288258,7.065966,14.794704,0.120364,-0.307751,0.700529,7.608000,10.189004

0.510885,7.054664,7.109076,14.768234,0.400149,-0.156401,0.610198,7.608000,10.189004

1.325192,2.197564,8.491003,14.777058,-0.441073,0.082350,0.146287,7.612000,10.189004

2.276014,2.724468,11.008168,14.782940,0.062808,0.251020,0.065282,7.620000,10.189004

-1.081803,2.374796,6.256449,14.771175,0.103310,0.117789,-0.253940,7.624000,10.189004

-0.205226,7.138490,7.293493,14.774117,0.374302,0.134043,-0.520136,7.624000,10.189004

2.292779,1.498219,7.192902,14.774117,-0.280929,0.033587,-0.756488,7.628000,10.189004

2.149078,1.536539,8.256291,14.762352,0.078263,0.173213,-0.832963,7.632000,10.189004

-0.609984,4.379427,7.372529,14.768234,0.117965,0.076488,-0.808981,7.636000,10.189004

3.875887,10.975311,6.948610,14.768234,-0.021661,-0.061274,-0.577692,7.636000,10.189004

7.566613,8.676092,9.523256,14.768234,-0.688084,-0.151871,-0.039971,7.620000,10.189004

3.150197,-10.735541,11.848821,14.768234,-0.625465,0.212916,0.499349,7.624000,10.189004

-3.227741,2.298155,14.928816,14.771175,-0.305177,0.504693,0.447123,7.620000,10.189004

3.959713,-3.205600,9.853769,14.768234,-0.033119,0.165752,-0.068749,7.612000,10.189004

3.449574,-4.968334,6.883945,14.768234,-0.200724,0.213716,-0.016256,7.612000,10.189004

-3.096014,0.588111,8.210786,14.756470,-0.007272,0.762895,0.061818,7.608000,10.189004

-6.243070,3.265743,10.438154,14.777058,0.058811,0.215314,-0.377046,7.604000,10.189004

-9.198524,-2.120656,7.841952,14.791763,-0.158356,0.101269,-0.883058,7.604000,10.189004

-2.657726,-0.880036,7.810817,14.768234,-0.027790,-0.124425,-0.851083,7.604000,10.189004

1.708395,1.251532,13.187636,14.779999,-0.100001,-0.147075,-0.479101,7.592000,10.189004

3.394488,0.825218,12.289504,14.779999,-0.103998,-0.092983,-0.094862,7.600000,10.189004

2.462826,3.229818,10.112432,14.753529,0.208829,0.165752,0.149751,7.596000,10.189004

0.218693,3.490875,6.584567,14.771175,-0.076819,0.028791,0.364519,7.596000,10.189004

2.702328,5.320670,7.288703,14.768234,0.100912,0.114858,0.340538,7.592000,10.189004

1.725160,2.080208,11.214140,14.779999,0.194707,0.405302,0.110847,7.592000,10.189004

-0.878226,2.951995,7.899433,14.774117,0.066805,0.304846,-0.073545,7.592000,10.189004

-2.839747,8.266544,4.261398,14.753529,0.185114,0.450334,-0.268329,7.612000,10.189004

-3.826495,1.847891,7.171347,14.782940,-0.344613,0.286193,-0.359726,7.604000,10.189004

-3.948641,3.953113,12.375725,14.779999,-0.235364,0.187602,-0.333346,7.612000,10.189004

-1.594337,0.901859,15.256933,14.756470,0.202967,0.083149,-0.304568,7.620000,10.189004

-3.836076,4.017779,7.099496,14.768234,0.180051,-0.008780,-0.220632,7.620000,10.189004

-4.750973,7.442657,1.047282,14.782940,0.089987,-0.071932,0.038902,7.620000,10.144765

-5.311408,9.341908,-1.489044,14.771175,-0.148497,-0.176385,0.065815,7.616000,10.144765

-4.054022,2.465806,11.547048,14.774117,-0.661171,-0.453240,0.140957,7.616000,10.144765

2.333495,-2.096706,21.431293,14.782940,0.400949,0.101002,0.560369,7.636000,10.144765

-11.437868,4.269256,5.183481,14.762352,0.382030,0.403970,0.944608,7.640000,10.144765

-7.601046,2.940020,4.350014,14.774117,-0.496763,-1.079427,0.558504,7.628000,10.144765

-1.603917,-5.622174,11.638059,14.765293,-0.047241,-0.087653,0.347466,7.632000,10.144765

-6.116134,3.280113,12.495476,14.771175,0.168327,-0.175320,0.181993,7.632000,10.144765

-3.036139,5.244029,4.596701,14.765293,-0.099734,-0.564355,0.080204,7.624000,10.144765

-0.262706,-3.981586,6.962980,14.785881,-0.312638,-0.678667,-0.127637,7.620000,10.144765

7.875570,-4.633031,14.152829,14.779999,0.101178,0.071958,-0.067683,7.620000,10.144765

9.298211,5.294325,11.367421,14.759411,-0.043511,0.095939,0.041034,7.616000,10.144765

5.425465,-3.612753,13.527729,14.759411,0.220554,-0.046085,0.545714,7.616000,10.144765

1.279686,-6.208954,8.270661,14.768234,0.435855,0.286460,0.297371,7.616000,10.144765

-4.427645,3.141202,2.354963,14.785881,0.159267,0.312840,-0.034908,7.600000,10.144765

0.582735,2.717283,-1.491439,14.774117,0.318345,0.149765,-0.167340,7.600000,10.144765

-2.032626,5.085958,1.648432,14.762352,0.463834,0.095406,-0.350133,7.608000,10.144765

-4.382140,13.056583,19.270987,14.762352,-0.214047,0.168417,-0.823370,7.592000,10.144765

0.486935,1.524564,9.207114,14.768234,0.393488,0.033321,-1.074378,7.600000,10.144765

-3.206185,4.599769,10.933923,14.771175,0.024970,-0.238205,-1.008295,7.600000,10.144765

2.249669,5.375755,9.650192,14.759411,-0.018197,-0.265650,-0.977386,7.596000,10.144765

0.302518,-3.811540,7.006091,14.762352,-0.100800,-0.254459,-0.796724,7.596000,10.144765

-4.065998,1.361702,8.376042,14.750587,0.264786,-0.049283,-0.456984,7.604000,10.144765

-3.893556,12.570394,10.684841,14.753529,0.125693,-0.199301,-0.184660,7.612000,10.144765

1.952687,8.929964,13.326548,14.768234,0.143812,-0.605390,0.116709,7.608000,10.144765

0.295333,2.702913,5.279282,14.768234,0.210428,-0.710909,0.549178,7.616000,20.132692

-3.412157,9.861627,11.690749,14.768234,-0.463189,-0.209693,0.861205,7.612000,20.132692

5.590722,-0.077704,10.064531,14.756470,-0.414160,-0.681065,0.510008,7.608000,20.132692

2.951410,-2.803236,8.318562,14.765293,-0.139171,-0.239271,0.249408,7.612000,20.132692

-0.195646,0.324659,3.583608,14.756470,0.525919,0.162288,0.025313,7.636000,20.132692

-2.911598,7.976747,8.019184,14.750587,0.152872,-0.083390,-0.384773,7.632000,20.132692

-3.294801,5.344620,12.229629,14.765293,0.094783,-0.002119,-0.592347,7.636000,20.132692

0.139657,-1.462026,11.561419,14.762352,-0.143434,-0.194505,-0.537456,7.640000,20.132692

2.383790,-1.885944,11.113549,14.762352,0.199503,-0.225414,-0.032243,7.644000,20.132692

2.335890,6.340948,3.691384,14.756470,0.271981,-0.124159,0.362654,7.640000,20.132692

2.855609,5.485926,6.687553,14.753529,-0.238028,0.028258,0.625919,7.632000,20.132692

3.837567,-2.848742,13.419953,14.741764,-0.214047,0.093008,0.794323,7.624000,20.132692

-1.647028,-2.027250,12.428415,14.756470,0.300226,0.275002,0.728774,7.624000,20.132692

-3.419342,1.567674,8.318562,14.756470,-0.191397,0.286460,0.320287,7.628000,20.132692

-2.341583,-0.252541,7.353368,14.762352,0.063874,0.376791,0.226225,7.612000,20.132692

0.000746,-0.602214,9.104128,14.762352,-0.156224,0.157492,0.168137,7.616000,20.132692

1.092875,2.877750,11.420112,14.771175,-0.158889,0.321100,-0.031977,7.612000,20.132692

0.666561,0.789293,8.979588,14.777058,0.101978,0.277134,-0.221432,7.612000,20.132692

0.292938,2.645433,7.018065,14.762352,0.065472,0.241428,-0.395965,7.612000,20.132692

0.336049,2.561607,10.193862,14.753529,-0.186335,0.211051,-0.539055,7.608000,20.132692

0.853373,0.770133,10.011841,14.747646,-0.028056,0.226506,-0.641909,7.608000,20.132692

-0.384852,3.747142,9.623847,14.753529,-0.002209,0.285661,-0.632317,7.608000,20.132692

-1.127308,1.704190,9.508886,14.756470,-0.279863,0.117523,-0.521202,7.604000,20.132692

-2.293683,-0.017829,10.471684,14.747646,-0.232433,0.026126,-0.448724,7.600000,20.132692

0.218693,-0.022619,8.153305,14.771175,0.266385,-0.055411,-0.385839,7.604000,20.132692

-1.951195,8.915594,7.729386,14.756470,0.539243,0.263811,-0.108718,7.620000,20.132692

-5.656291,6.841507,6.960585,14.765293,-0.097336,-0.118563,0.379175,7.616000,20.750095

-3.723510,2.434671,9.099339,14.753529,-0.197526,-0.228878,0.647236,7.624000,20.750095

0.707277,6.611586,10.162726,14.759411,0.101978,-0.037026,0.805515,7.628000,20.750095

-1.709298,4.381822,7.640771,14.747646,0.106508,-0.115099,0.959530,7.632000,20.750095

-2.454149,2.949600,8.399992,14.759411,-0.070690,-0.073797,0.897977,7.640000,20.750095

-2.923573,1.646710,9.990285,14.771175,-0.122384,0.116457,0.817506,7.644000,20.750095

-4.082763,1.265902,9.245434,14.750587,0.140348,0.009339,0.688271,7.644000,20.750095

-5.150941,0.545001,9.465776,14.756470,-0.049906,-0.018906,0.499349,7.644000,20.750095

-6.750814,-1.737453,11.312336,14.753529,-0.106929,-0.050615,0.237950,7.640000,20.750095

-4.123478,3.296878,11.187795,14.759411,0.046554,-0.243267,0.022115,7.636000,20.750095

-2.272128,-1.397360,9.329260,14.771175,0.070535,-0.407941,-0.004531,7.632000,20.750095

-1.383576,-1.289584,10.330379,14.768234,-0.027257,-0.362376,-0.131101,7.632000,20.750095

2.766993,1.256322,9.283754,14.747646,0.158734,-0.179583,-0.066350,7.628000,20.750095

6.280487,0.885094,10.327983,14.750587,0.056413,-0.289365,0.001331,7.616000,20.750095

-1.215924,1.510194,9.820239,14.759411,0.021506,0.180941,0.242213,7.612000,20.750095

-1.481771,4.434513,8.572433,14.779999,0.292498,0.149765,0.051159,7.612000,20.750095

-2.181117,0.899464,7.075546,14.771175,-0.110926,-0.027166,-0.101524,7.616000,20.750095

-1.352440,0.612061,11.753019,14.779999,-0.222041,0.000013,-0.271793,7.612000,20.750095

-1.654213,3.308853,9.817844,14.774117,0.205632,0.029324,-0.606203,7.608000,20.750095

-2.087711,1.380862,7.815607,14.765293,0.136884,-0.196370,-0.764482,7.604000,20.750095

-2.332003,2.161639,8.131750,14.759411,-0.072289,-0.311215,-0.634182,7.608000,20.750095

-1.936825,4.115975,10.960268,14.759411,0.117166,-0.202232,-0.452188,7.612000,20.750095

-0.696205,2.465806,8.524533,14.747646,-0.033385,-0.451641,-0.174001,7.608000,20.750095

0.551600,6.491835,9.530441,14.765293,0.117433,-0.447644,0.159610,7.616000,20.750095

-1.136889,5.658368,7.123446,14.756470,0.198970,-0.447911,0.359190,7.616000,20.651190

-1.687743,2.128109,7.796447,14.759411,0.001255,-0.442048,0.426605,7.616000,20.651190

-1.635053,5.464371,9.401111,14.750587,0.116367,-0.395151,0.563300,7.624000,20.651190

-0.334557,3.888448,9.295730,14.782940,0.065206,-0.552097,0.698397,7.628000,20.651190

-1.069828,2.046678,9.180769,14.762352,0.053482,-0.470560,0.772207,7.628000,20.651190

-0.641119,6.350528,6.072033,14.768234,0.102244,-0.386358,0.897178,7.636000,20.651190

0.575550,2.482572,9.793894,14.747646,-0.248687,-0.346655,0.870265,7.636000,20.651190

-0.054340,-0.245356,17.285515,14.765293,-0.091474,-0.216888,0.921160,7.644000,20.651190

0.879718,4.137530,9.578342,14.768234,-0.064295,-0.186244,0.819104,7.640000,20.651190

3.372933,2.738839,9.947175,14.756470,0.136351,0.031189,0.839089,7.640000,20.651190

4.290226,-1.133908,9.044252,14.768234,0.022305,-0.084456,0.997634,7.632000,20.651190

7.281605,5.435631,10.387858,14.777058,-0.188466,0.092475,0.954734,7.636000,20.651190

4.694984,-3.493002,13.937278,14.771175,0.452109,0.239563,0.900908,7.632000,20.651190

4.963226,-1.715898,10.586645,14.774117,0.281307,0.379189,0.651233,7.632000,20.651190

2.486776,1.167706,4.493715,14.768234,0.084658,0.555854,0.400225,7.632000,20.651190

-0.095055,1.960457,5.772655,14.779999,0.024171,0.464723,0.335741,7.612000,20.651190

-0.317792,-3.607963,12.023657,14.771175,0.216024,0.407700,0.237950,7.616000,20.651190

-6.118529,6.336158,10.253737,14.756470,0.103843,0.577703,-0.156148,7.612000,20.651190

0.647401,3.136412,6.728268,14.759411,-0.069358,0.099403,-0.517471,7.604000,20.651190

2.110758,3.052586,10.732741,14.762352,-0.053903,0.159624,-0.416749,7.612000,20.651190

3.617225,2.865775,2.376518,14.768234,0.681267,0.094074,-0.319490,7.616000,20.651190

-3.208580,7.284586,13.858242,14.753529,-0.301180,0.352543,-0.113781,7.612000,20.651190

3.183727,-3.926501,12.057187,14.750587,-0.335287,-0.046885,0.091395,7.612000,20.651190

3.480709,4.559054,8.112590,14.762352,0.324207,0.352010,0.277919,7.616000,20.651190

-0.150140,5.184154,8.531718,14.744705,0.131821,0.265143,0.504679,7.620000,20.651190

-0.559689,3.354359,7.772497,14.762352,-0.011535,0.278999,0.823368,7.616000,20.651190

-0.974027,1.898187,7.192902,14.771175,0.042024,0.375725,1.070112,7.620000,20.691995

-0.279472,6.954073,6.529481,14.768234,0.247733,0.626999,1.129533,7.628000,20.691995

-0.497418,6.506205,10.586645,14.750587,0.244269,0.528408,0.929153,7.636000,20.691995

0.007931,5.253609,7.664721,14.756470,0.342593,0.624867,0.483095,7.640000,20.691995

-2.061366,6.879827,6.378595,14.753529,-0.040846,0.607281,0.143089,7.644000,20.691995

-2.851722,2.712493,9.487331,14.750587,-0.244424,0.552922,0.091928,7.640000,20.691995

-2.468519,3.035821,11.010564,14.756470,0.111304,0.538534,0.083135,7.644000,20.691995

-3.404972,0.964129,9.528047,14.753529,0.044688,0.492968,0.012256,7.656000,20.691995

-4.849169,0.909044,6.828859,14.738823,0.134220,0.329627,-0.066084,7.652000,20.691995

-5.313803,6.676251,9.274175,14.753529,-0.125848,0.445538,-0.122041,7.648000,20.691995

-6.592743,-0.333971,12.148198,14.732941,-0.220442,0.119388,-0.300837,7.652000,20.691995

-0.947682,2.235884,11.494358,14.744705,-0.192730,0.028524,-0.634981,7.644000,20.691995

0.118102,1.840706,11.029724,14.774117,-0.166350,-0.038091,-0.714920,7.636000,20.691995

5.693707,-2.642770,8.261081,14.762352,0.086523,-0.144410,-0.671220,7.636000,20.691995

7.858805,-1.433285,9.458591,14.782940,-0.253483,0.173213,-0.714121,7.620000,20.691995

6.642135,4.154295,10.054951,14.768234,0.016177,0.364800,-0.603539,7.628000,20.691995

-1.321305,0.566556,6.927055,14.747646,0.199503,0.316037,-0.606470,7.616000,20.691995

-6.532867,-1.890734,9.336445,14.747646,-0.077352,0.174279,-0.871867,7.612000,20.691995

-3.507958,1.330567,9.822634,14.744705,-0.030721,0.038383,-1.194819,7.620000,20.691995

-3.972592,0.710257,8.867022,14.759411,-0.018730,-0.142811,-1.308066,7.616000,20.691995

-4.772528,1.366493,9.690907,14.744705,0.055880,-0.260055,-1.208142,7.608000,20.691995

-3.045719,0.913834,10.555510,14.756470,0.235209,-0.406609,-0.883324,7.616000,20.691995

-1.057853,3.356754,8.696975,14.753529,0.143812,-0.530248,-0.342672,7.616000,20.691995

1.001864,4.386612,8.814330,14.768234,0.171791,-0.518790,0.172666,7.612000,20.691995

2.086808,3.213053,10.768666,14.768234,0.074532,-0.498272,0.604869,7.616000,21.014220

-0.195646,7.921661,4.670947,14.771175,0.292498,-0.254192,0.790859,7.624000,21.014220

-1.335675,9.715530,-3.584686,14.771175,-0.030721,-0.219819,0.785530,7.616000,21.014220

-1.970355,5.730218,0.431762,14.771175,-0.823713,-0.318143,0.404222,7.604000,21.014220

1.787430,-7.147802,28.209198,14.744705,-0.310240,-0.188376,-0.046632,7.624000,21.014220

3.404068,-4.192348,26.870382,14.782940,0.299693,-0.041555,-0.410354,7.640000,21.014220

-0.871041,3.692056,7.906618,14.756470,0.775861,0.243826,-0.288047,7.652000,21.014220

-8.302787,12.563209,-3.285308,14.747646,0.614119,-0.085788,-0.066883,7.648000,21.014220

1.856886,4.230936,8.184441,14.732941,-0.160488,-0.549699,0.089264,7.636000,21.014220

5.914049,-0.784235,12.921789,14.738823,-0.117321,-0.385558,-0.229958,7.644000,21.014220

4.474642,3.811807,8.919712,14.750587,-0.048041,-0.003718,-0.313894,7.648000,21.014220

2.702328,3.723191,7.470724,14.750587,-0.012335,0.150298,-0.261401,7.648000,21.014220

3.859122,0.954549,10.548325,14.765293,-0.094405,0.007207,-0.151352,7.640000,21.014220

3.059186,1.395233,12.210468,14.753529,0.018308,0.088212,-0.083937,7.640000,21.014220

0.762362,-0.487253,12.509846,14.765293,-0.169548,0.200925,-0.073012,7.632000,21.014220

1.040184,-9.248234,4.232658,14.747646,0.338063,0.247290,0.000532,7.636000,21.014220

-5.423974,-6.884350,8.270661,14.756470,0.508333,0.114592,-0.026115,7.644000,21.014220

-9.974511,11.703397,13.012800,14.741764,-0.655575,-0.316012,-0.342939,7.620000,21.014220

2.187399,-7.535795,15.711987,14.744705,-0.662237,-0.152137,-0.092730,7.600000,21.014220

2.012562,-7.217257,11.602134,14.759411,0.173123,0.012004,0.298970,7.592000,21.014220

-3.481613,-3.993561,6.761798,14.759411,0.119298,-0.056744,0.412216,7.600000,21.014220

-5.383258,4.075260,5.736730,14.762352,0.226949,0.012004,0.625386,7.592000,21.014220

0.565970,8.575501,7.580895,14.756470,0.124094,-0.012777,0.812976,7.600000,21.014220

0.283358,2.171219,11.539863,14.744705,-0.271070,-0.064205,1.033340,7.592000,21.014220

1.739530,0.944969,9.875324,14.759411,0.108373,0.012270,1.277420,7.596000,21.014220

0.144447,6.463094,8.237131,14.750587,0.151806,0.299250,1.509775,7.600000,21.014220

0.254618,2.904095,7.592870,14.747646,-0.120785,0.248622,1.510841,7.596000,20.328159

0.393529,2.516102,8.447892,14.759411,-0.012601,0.337088,1.226526,7.608000,20.328159

-1.441056,6.757682,8.893367,14.744705,0.079595,0.599020,0.557971,7.612000,20.328159

-3.678004,4.731495,8.644284,14.762352,-0.106129,0.567844,0.102320,7.612000,20.328159

-3.129545,6.793607,7.142607,14.753529,-0.138105,0.579569,-0.335478,7.616000,20.328159

-2.068551,5.564962,8.586803,14.741764,-0.101866,0.481510,-0.560105,7.624000,20.328159

-2.985843,4.072865,9.219090,14.756470,-0.141835,0.515351,-0.594213,7.632000,20.328159

-1.282985,3.193892,8.196416,14.759411,-0.088276,0.256350,-0.503615,7.636000,20.328159

-0.897387,4.163876,9.207114,14.744705,0.013779,0.249422,-0.413818,7.636000,20.328159

-2.214647,0.549791,9.175979,14.750587,-0.035250,0.172414,-0.218234,7.640000,20.328159

-4.468361,1.926927,8.567643,14.735882,-0.098669,0.198261,-0.071413,7.644000,20.328159

-5.653895,2.432276,9.884905,14.741764,-0.035783,0.122852,-0.065818,7.648000,20.328159

-3.524723,1.661080,11.317126,14.744705,-0.128512,-0.076462,-0.020252,7.640000,20.328159

-2.252968,-2.163766,11.020144,14.768234,0.041757,-0.163062,0.052492,7.636000,20.328159

-1.536857,-1.998510,9.714858,14.782940,-0.123183,-0.047684,0.130032,7.640000,20.328159

2.534677,2.214329,10.347143,14.732941,0.055613,0.027991,0.184124,7.636000,20.328159

4.441112,0.394115,8.117380,14.753529,-0.056035,0.013602,0.107383,7.632000,20.328159

6.591840,-1.117143,9.235854,14.762352,-0.185269,0.224907,-0.061554,7.620000,20.328159

9.118585,3.960299,9.266990,14.762352,0.213892,0.419158,-0.397563,7.620000,20.328159

5.691312,2.920860,8.627519,14.744705,-0.136506,0.694947,-0.637113,7.620000,20.328159

-1.271010,-0.607004,8.747270,14.765293,-0.049107,0.734117,-0.992308,7.616000,20.328159

-2.343978,0.624036,8.780800,14.756470,-0.099468,0.659507,-1.678715,7.620000,20.328159

-5.328173,-1.699132,12.370934,14.762352,-0.051238,0.518016,-2.177533,7.624000,20.328159

-6.731654,-3.363671,11.913486,14.765293,-0.068558,0.273936,-2.297707,7.612000,20.328159

-7.902819,1.105435,8.843071,14.759411,0.221353,0.277134,-2.174868,7.620000,20.328159

-5.962853,0.715047,8.045529,14.753529,0.224018,-0.166793,-1.895882,7.620000,20.519964

-2.796637,5.296720,10.919553,14.732941,0.398018,-0.366640,-1.617162,7.628000,20.519964

-4.295919,4.724310,10.421389,14.753529,0.509132,-0.463365,-1.384274,7.624000,20.519964

-1.668583,4.491993,9.013118,14.756470,0.252263,-0.755142,-1.126072,7.636000,20.519964

-0.993187,3.282508,6.927055,14.750587,0.427328,-0.497206,-0.905707,7.640000,20.519964

-5.826337,3.488480,9.939990,14.762352,0.422799,-0.591267,-0.317625,7.640000,20.519964

-5.409603,3.083721,8.522139,14.750587,0.404146,-0.759139,-0.076210,7.640000,20.519964

1.454523,2.228699,9.065807,14.762352,0.472893,-0.878514,0.166804,7.648000,20.519964

0.546810,3.450159,10.766272,14.744705,0.332201,-0.662679,0.280317,7.648000,20.519964

0.601896,2.892120,8.277846,14.765293,0.376967,-0.646958,0.328280,7.640000,20.519964

-0.997977,5.770934,5.705595,14.735882,0.324740,-0.622444,0.278718,7.644000,20.519964

0.525255,2.238280,5.882826,14.738823,-0.304644,-0.620312,0.242746,7.636000,20.519964

1.820961,-0.080099,15.819763,14.756470,-0.188200,-0.506532,0.201444,7.632000,20.519964

-0.626749,-0.310021,10.495634,14.735882,0.494743,-0.428725,0.107650,7.632000,20.519964

0.700091,3.636971,6.299560,14.741764,-0.087211,-0.417001,0.229956,7.628000,20.519964

-0.245941,3.198682,-0.701082,14.732941,-0.330491,-0.353316,0.244878,7.620000,20.519964

-0.301027,-1.016552,9.681328,14.735882,-0.344880,-0.409540,0.289643,7.612000,20.519964

-2.851722,-5.126405,19.658979,14.762352,0.779059,-0.325871,0.202244,7.632000,20.519964

-1.570387,-0.923146,5.633744,14.771175,0.324474,-0.329868,0.138559,7.624000,20.519964

-1.611102,3.936348,0.189865,14.747646,0.000722,-0.554496,0.507610,7.616000,20.519964

-1.761989,-0.226196,7.901828,14.738823,0.005785,-0.458303,1.009892,7.592000,20.519964

-0.406408,1.234766,13.530125,14.747646,0.253861,-0.357846,1.183092,7.600000,20.519964

2.707118,4.480018,10.090877,14.774117,-0.061097,-0.403678,1.252106,7.592000,20.519964

2.110758,0.305499,6.222919,14.753529,-0.123982,-0.306952,1.473270,7.588000,20.519964

-0.490233,2.607113,8.914922,14.738823,-0.018463,-0.076728,1.243046,7.596000,20.519964

1.787430,1.641920,11.360236,14.727058,0.000988,-0.134284,0.943276,7.596000,20.519964

5.485341,0.465965,8.438313,14.744705,0.178452,-0.077261,0.826299,7.604000,20.028385

-0.346532,12.771576,6.261240,14.750587,0.301825,0.598488,0.824434,7.612000,20.028385

-1.635053,2.700518,7.961703,14.747646,-0.395508,0.185737,0.721313,7.608000,20.028385

-0.356112,2.528077,11.027328,14.738823,0.325273,0.305379,0.836957,7.620000,20.028385

0.872533,4.127950,4.728427,14.750587,0.382563,0.279798,1.115144,7.628000,20.028385

0.803077,12.460223,1.648432,14.765293,0.465166,0.479645,1.310994,7.632000,20.028385

-7.756722,5.651183,12.737372,14.753529,-0.906050,0.942491,1.575325,7.624000,20.028385

-0.298632,2.516102,14.660573,14.747646,-0.204188,0.101801,1.046930,7.624000,20.028385

-0.341742,-0.041779,5.952282,14.753529,0.430792,0.237964,0.622721,7.636000,20.028385

1.306031,8.551551,6.254055,14.750587,-0.050172,0.554788,0.258201,7.644000,20.028385

-0.890202,4.084840,9.949570,14.741764,-0.200457,0.681624,0.161208,7.644000,20.028385

-0.195646,3.890843,11.343472,14.759411,0.288235,0.539866,-0.029046,7.644000,20.028385

-1.649423,3.668106,7.731781,14.768234,-0.080816,0.414628,-0.096194,7.648000,20.028385

-5.711376,0.259993,10.593830,14.777058,-0.199924,0.397042,-0.162277,7.648000,20.028385

-5.565279,1.244346,10.871653,14.759411,0.001255,0.224108,-0.348534,7.640000,20.028385

-4.968920,-0.664484,9.441826,14.747646,0.202701,-0.123892,-0.537989,7.644000,20.028385

-2.791847,0.410880,7.861113,14.747646,-0.010469,-0.105773,-0.516139,7.640000,20.028385

-0.368087,-2.283517,10.205837,14.777058,-0.394442,-0.387690,-0.303236,7.640000,20.028385

2.764598,-0.398637,11.420112,14.747646,-0.052837,-0.020771,-0.299505,7.632000,20.028385

2.187399,-0.319601,9.937595,14.762352,0.048152,-0.054346,-0.254473,7.632000,20.028385

2.525096,1.189261,9.233459,14.762352,0.057478,0.186803,-0.213171,7.620000,20.028385

-0.789611,0.279154,9.367580,14.762352,-0.024326,0.024794,-0.039704,7.624000,20.028385

-1.120123,0.219278,8.330537,14.768234,0.021506,-0.001586,-0.156681,7.620000,20.028385

-1.651818,3.306458,8.898156,14.756470,0.014578,0.060233,-0.412485,7.616000,20.028385

-0.918942,2.384376,9.413086,14.768234,-0.034185,-0.036493,-0.503882,7.620000,20.028385

-2.415829,0.406090,11.058464,14.759411,0.004452,-0.015708,-0.516672,7.612000,20.717341

-3.481613,1.031190,10.002260,14.750587,-0.049639,-0.140679,-0.552112,7.616000,20.717341

-2.909203,1.996382,8.627519,14.741764,-0.005407,-0.261120,-0.476170,7.608000,20.717341

-1.527277,1.313802,9.250224,14.777058,0.085990,-0.353583,-0.230491,7.612000,20.717341

-1.237479,4.417747,9.314890,14.759411,0.138217,-0.383960,0.041034,7.616000,20.717341

-0.746500,3.213053,7.576105,14.741764,0.041224,-0.383693,0.267261,7.612000,20.717341

1.365907,4.568634,8.275451,14.771175,0.073733,-0.411405,0.491888,7.620000,20.717341

2.311940,5.663157,8.756850,14.744705,0.019907,-0.342125,0.545714,7.628000,20.717341

1.059344,6.000855,8.227551,14.747646,0.049751,-0.286967,0.556106,7.632000,20.717341

1.071320,5.306300,9.319680,14.738823,0.015377,-0.103908,0.514804,7.632000,20.717341

-1.812284,4.417747,9.939990,14.747646,0.091053,-0.035960,0.449521,7.636000,20.717341

0.170792,3.306458,9.178373,14.756470,0.023105,-0.079127,0.483895,7.640000,20.717341

-0.420778,3.840548,9.475356,14.753529,-0.011269,-0.050882,0.506544,7.648000,20.717341

0.381554,3.802227,9.549602,14.756470,0.013246,-0.080992,0.431401,7.644000,20.717341

2.007772,2.585557,10.244158,14.771175,0.096915,-0.091650,0.384770,7.648000,20.717341

2.493961,1.783226,9.154424,14.735882,0.077463,-0.026900,0.434332,7.652000,20.717341

4.874610,-0.389057,7.978468,14.750587,0.026835,0.062099,0.531325,7.640000,20.717341

4.148920,-0.295651,9.611873,14.744705,-0.228169,0.269406,0.681343,7.640000,20.717341

3.950133,0.873118,10.864468,14.750587,0.011647,0.228371,0.654963,7.640000,20.717341

4.886586,-0.183085,9.082573,14.750587,0.063074,0.511887,0.547579,7.632000,20.717341

2.395765,-2.520624,8.421547,14.727058,-0.175943,0.592359,0.510541,7.628000,20.717341

-0.526159,1.845496,9.683722,14.762352,0.050284,0.678693,0.574758,7.628000,20.717341

-2.030231,0.044442,10.136381,14.771175,0.045221,0.575039,0.397827,7.616000,20.717341

-3.539093,1.893397,10.033396,14.753529,-0.001943,0.542264,0.205175,7.612000,20.717341

-2.763107,1.514984,8.967612,14.768234,-0.018197,0.464457,0.050360,7.624000,20.717341

0.520465,4.336317,8.608358,14.756470,-0.010203,0.403703,-0.056491,7.612000,20.549634

0.022301,2.786739,9.887300,14.735882,-0.018730,0.328295,-0.209707,7.616000,20.549634

0.400714,4.238121,9.379556,14.744705,-0.023526,0.373860,-0.161478,7.624000,20.549634

0.254618,3.220237,9.489726,14.759411,-0.027523,0.324031,-0.073545,7.624000,20.549634

-0.315397,2.125714,8.687394,14.756470,-0.112525,0.394644,-0.160678,7.620000,20.549634

-0.063920,3.543565,8.546088,14.756470,0.047619,0.346148,-0.340540,7.632000,20.549634

-0.190856,3.545960,8.838281,14.759411,-0.042179,0.376524,-0.332280,7.628000,20.549634

-1.247059,3.795042,8.934082,14.744705,-0.003541,0.315771,-0.344537,7.632000,20.549634

-1.896110,3.608231,9.939990,14.768234,-0.043511,0.248889,-0.355995,7.640000,20.549634

-1.682953,3.184312,9.156818,14.750587,0.035629,0.184671,-0.310963,7.640000,20.549634

-1.376390,3.148387,8.998747,14.753529,-0.032053,0.197994,-0.268063,7.648000,20.549634

-3.009794,3.941139,9.276569,14.756470,-0.051505,0.292855,-0.229159,7.648000,20.549634

-3.560648,2.353240,12.155383,14.762352,-0.190598,0.196662,-0.228360,7.648000,20.549634

-0.894992,2.827454,11.130315,14.732941,0.075864,0.144702,-0.313894,7.652000,20.549634

-2.346373,1.031190,8.062294,14.756470,0.125959,0.001079,-0.370384,7.652000,20.549634

-4.736603,0.789293,8.929292,14.744705,-0.035517,-0.030630,-0.351465,7.648000,20.549634

-6.061049,-0.832135,9.616662,14.747646,-0.174610,-0.103908,-0.308565,7.652000,20.549634

-1.855394,0.758158,10.617781,14.753529,0.048952,-0.175586,-0.402093,7.652000,20.549634

-1.388366,-0.350737,10.486054,14.741764,0.084658,-0.279506,-0.401560,7.648000,20.549634

-0.677045,-2.338603,8.526928,14.753529,0.068670,-0.410339,-0.378911,7.636000,20.549634

-1.294960,-1.816489,10.203442,14.771175,-0.021661,-0.382894,-0.285916,7.636000,20.549634

0.376764,-0.561498,10.421389,14.753529,-0.021661,-0.460967,-0.244614,7.624000,20.549634

3.569325,0.750972,10.203442,14.762352,0.067071,-0.366640,-0.244347,7.624000,20.549634

2.692748,1.694610,8.811935,14.741764,0.174189,-0.307485,-0.078874,7.616000,20.549634

0.700091,1.210816,8.522139,14.750587,0.072400,-0.264584,0.009858,7.616000,20.893371

-1.405131,2.264625,10.038186,14.759411,-0.004607,-0.196637,0.003996,7.604000,20.893371

-1.960775,1.653895,7.825187,14.762352,0.096116,-0.304021,-0.028513,7.608000,20.893371

-0.794401,0.204908,9.456196,14.771175,-0.009937,-0.393286,0.016253,7.604000,20.893371

-0.739315,2.980736,9.777128,14.768234,0.080128,-0.266983,0.103386,7.600000,20.893371

-2.815797,1.373677,10.196257,14.759411,0.034030,-0.336263,0.172666,7.608000,20.893371

-3.651659,1.558094,8.217971,14.762352,0.104376,-0.352517,0.135895,7.612000,20.893371

-0.495023,3.462135,7.803632,14.762352,0.006851,-0.410339,0.208106,7.604000,20.893371

-1.060248,3.718402,8.064690,14.753529,0.056679,-0.382627,0.300035,7.616000,20.893371

-1.282985,3.538775,9.439431,14.753529,0.085990,-0.426594,0.390633,7.620000,20.893371

-0.535739,3.371124,8.459867,14.768234,-0.038448,-0.371969,0.400758,7.612000,20.893371

-0.248336,4.015384,8.330537,14.768234,0.073733,-0.292563,0.554774,7.620000,20.893371

0.985099,3.802227,8.388017,14.762352,0.030299,-0.291231,0.711187,7.624000,20.893371

0.767152,6.470279,9.312495,14.771175,0.046021,-0.266716,0.792991,7.624000,20.893371

1.375487,3.538775,10.136381,14.762352,-0.024059,-0.150805,0.790859,7.632000,20.893371

1.406622,2.573582,8.840676,14.768234,-0.066960,-0.081525,0.820437,7.636000,20.893371

2.726278,5.241634,9.362790,14.768234,0.005518,0.052772,0.815107,7.636000,20.893371

3.502264,5.212894,10.421389,14.765293,-0.063495,0.249422,0.697065,7.640000,20.893371

3.554955,3.471714,8.035949,14.777058,0.154737,0.280065,0.531058,7.648000,20.893371

-0.178881,1.582044,9.575947,14.771175,-0.040047,0.466855,0.313891,7.640000,20.893371

0.185162,-1.847624,11.621294,14.771175,-0.095205,0.441275,0.147885,7.648000,20.893371

0.776732,1.567674,8.634704,14.759411,0.081460,0.370396,-0.011193,7.640000,20.893371

-1.982330,-0.889616,11.767390,14.759411,-0.076286,0.282463,-0.307499,7.636000,20.893371

-0.178881,2.422696,8.543694,14.750587,0.021506,0.243826,-0.504148,7.628000,20.893371

0.872533,1.967642,6.139093,14.756470,0.003387,0.292589,-0.686142,7.628000,20.893371

0.807867,1.040770,9.233459,14.759411,-0.261477,0.269939,-0.771410,7.624000,20.893371

1.124010,0.408485,11.139894,14.759411,-0.013134,0.325896,-0.858277,7.624000,20.893371

1.741925,2.211934,11.290781,14.756470,0.015377,0.214249,-0.849484,7.624000,20.893371

1.385067,1.766461,8.419152,14.762352,-0.046708,0.208919,-0.763949,7.624000,20.893371

-0.150140,0.015701,9.331655,14.753529,-0.032053,0.164953,-0.679481,7.620000,20.893371

3.495080,0.176168,8.902946,14.750587,-0.130910,0.137774,-0.667223,7.616000,20.893371

1.413807,4.609349,9.140054,14.750587,0.224284,0.374126,-0.630452,7.624000,20.893371

-0.684230,2.384376,7.935358,14.759411,-0.064561,0.195063,-0.527331,7.616000,20.893371

-3.771410,1.615574,10.284873,14.771175,-0.150362,0.278466,-0.560105,7.620000,20.893371

-4.274364,1.311407,10.148356,14.768234,0.125693,0.142037,-0.585419,7.624000,20.893371

-3.172655,-1.574591,7.715016,14.771175,-0.161021,-0.144943,-0.592880,7.616000,20.893371

-1.678163,1.503009,8.598779,14.756470,-0.017397,0.122053,-0.516939,7.620000,20.893371

-2.573900,0.774923,13.348103,14.753529,-0.121851,-0.296293,-0.379444,7.616000,20.893371

1.346747,-0.135185,10.066926,14.753529,0.095849,-0.309883,-0.410354,7.612000,20.893371

-0.289052,2.077813,7.738966,14.779999,0.329803,-0.256058,-0.167606,7.616000,20.893371

-0.298632,-0.099259,8.696975,14.765293,-0.025924,-0.278174,0.149218,7.608000,20.893371

-3.431317,1.165311,8.471843,14.750587,-0.110659,-0.104441,0.177196,7.616000,20.893371

-0.356112,2.777159,9.551997,14.768234,0.127825,-0.145209,0.164939,7.600000,20.893371

-0.418383,-3.222365,12.852334,14.768234,0.092385,-0.411938,0.157212,7.596000,20.893371

0.101337,1.694610,9.980705,14.741764,0.028168,-0.272312,-0.037306,7.600000,20.893371

-0.035179,2.427486,7.075546,14.765293,0.178186,-0.176918,0.039435,7.604000,20.893371

-1.896110,1.287457,9.501701,14.747646,-0.044577,-0.284569,0.280317,7.600000,20.893371

0.395924,1.922137,8.783195,14.744705,0.118765,-0.108171,0.423408,7.592000,20.893371

-0.317792,0.463570,8.900552,14.747646,0.213625,-0.080725,0.647502,7.596000,20.893371

-1.563202,3.191497,10.201047,14.759411,-0.111192,-0.203032,0.936348,7.592000,20.893371

-2.193092,0.420460,10.078901,14.750587,0.079328,-0.128422,0.999499,7.580000,20.893371

-2.576295,-0.573473,10.589040,14.765293,-0.054969,-0.161730,0.877460,7.580000,20.893371

-1.345255,0.420460,9.580737,14.768234,0.062275,-0.200633,0.698663,7.576000,20.893371

-0.135770,1.400023,7.633585,14.744705,-0.014200,-0.138548,0.572627,7.576000,20.893371

-0.746500,2.753209,9.276569,14.741764,0.081727,0.037850,0.515870,7.576000,9.567237

-0.842301,1.550909,10.112432,14.750587,-0.018197,-0.053280,0.371980,7.572000,9.567237

0.527650,0.688702,9.568762,14.750587,-0.132776,-0.055145,0.061818,7.568000,9.567237

1.964662,1.383258,9.736413,14.738823,-0.042711,0.057569,-0.298706,7.572000,9.567237

1.579064,0.937784,10.014235,14.771175,-0.012601,0.122053,-0.369052,7.572000,9.567237

1.037789,1.811966,9.813054,14.747646,-0.079483,0.127115,-0.334145,7.572000,9.567237

-0.195646,2.125714,11.343472,14.756470,0.049485,0.103134,-0.269128,7.552000,9.567237

-0.332162,1.452713,9.700488,14.744705,0.002321,0.038650,-0.254207,7.560000,9.567237

-0.679440,0.034862,9.084968,14.747646,-0.031254,-0.031163,-0.180929,7.548000,9.567237

-0.641119,2.008358,8.699369,14.768234,-0.000344,-0.049549,0.022115,7.552000,9.567237

-2.217042,2.032308,10.639336,14.744705,0.034296,-0.072465,0.159077,7.544000,9.567237

-2.032626,1.720955,9.815449,14.765293,0.056679,-0.165460,0.227025,7.540000,9.567237

-0.933312,1.646710,8.821516,14.753529,0.005785,-0.157467,0.435132,7.552000,9.567237

-1.493746,0.887489,9.226274,14.759411,0.004719,-0.185179,0.888918,7.544000,9.567237

-0.844696,1.191656,8.565248,14.762352,0.098514,-0.189176,1.139126,7.532000,9.567237

-1.211134,1.493428,9.228669,14.747646,0.085457,-0.142545,1.318189,7.524000,9.567237

-2.882858,0.636012,10.641730,14.756470,-0.006473,-0.160131,1.295539,7.536000,9.567237

0.051041,2.238280,9.638218,14.738823,0.024704,-0.135617,1.198280,7.540000,9.567237

1.694025,0.738997,8.615544,14.765293,0.033497,-0.043154,1.079971,7.536000,9.567237

1.564694,1.742511,10.088481,14.765293,0.070002,-0.043154,0.904905,7.532000,9.567237

1.270106,1.493428,9.992681,14.756470,-0.038981,0.053039,0.688005,7.528000,9.567237

1.179096,2.688543,7.726991,14.756470,0.128890,0.076754,0.385303,7.536000,9.567237

0.522860,0.806058,10.615385,14.756470,-0.119186,0.099137,0.221962,7.524000,9.567237

1.368302,3.387889,9.255014,14.765293,0.092385,0.244892,-0.096461,7.536000,9.567237

2.048487,0.885094,9.152028,14.768234,-0.042978,0.230503,-0.119643,7.532000,9.567237

2.594552,1.948482,8.117380,14.762352,0.062008,0.174812,-0.154550,7.524000,9.567237

1.370697,0.475545,9.961545,14.756470,-0.098669,0.212916,-0.193187,7.508000,9.567237

-1.100963,1.368887,9.255014,14.765293,0.001255,0.199593,-0.181729,7.512000,9.567237

-0.662675,1.917347,9.750783,14.765293,0.017776,0.150831,-0.051962,7.504000,9.567237

-0.451913,1.261111,8.862231,14.753529,-0.013134,0.093541,-0.080207,7.512000,9.567237

-0.260311,1.411998,8.855046,14.756470,-0.031254,0.035186,-0.058357,7.492000,9.567237

-0.775241,1.857471,10.694421,14.768234,-0.023526,0.080484,-0.010926,7.504000,9.567237

0.118102,1.134176,9.441826,14.774117,0.006851,0.035186,-0.037040,7.492000,9.567237

0.577946,1.342542,10.486054,14.744705,-0.003541,0.098337,-0.076210,7.484000,9.567237

0.060621,1.639525,9.072993,14.765293,0.016177,0.095140,-0.095128,7.500000,9.567237

-0.904572,1.388048,9.286150,14.771175,0.044155,0.075422,-0.033842,7.480000,9.567237

0.218693,1.292247,9.348420,14.765293,0.055347,0.010671,0.108982,7.472000,9.567237

0.345629,0.173773,8.498188,14.753529,-0.027257,0.022129,0.281383,7.488000,9.567237

-1.405131,0.995264,9.645403,14.768234,0.026569,0.057302,0.401291,7.476000,2456.366366

-1.136889,1.407208,8.924501,14.762352,-0.028855,0.041847,0.449254,7.464000,2456.366366

0.027091,1.421578,10.145962,14.753529,0.046021,0.005076,0.460712,7.460000,2456.366366

1.485658,1.584439,8.584409,14.771175,0.011913,-0.039690,0.473236,7.452000,2456.366366

0.082176,1.210816,9.848979,14.762352,0.061209,0.001878,0.471637,7.456000,2456.366366

-0.219596,1.644315,9.963940,14.759411,0.061209,0.045844,0.428737,7.456000,2456.366366

0.862953,1.591624,9.465776,14.735882,0.015377,0.044778,0.404755,7.452000,2456.366366

1.286871,1.021610,9.542417,14.753529,-0.051771,0.076754,0.414081,7.440000,2456.366366

0.268988,2.422696,9.944780,14.774117,0.033497,0.146834,0.362921,7.440000,2456.366366

0.058226,0.542606,9.702883,14.753529,0.016710,0.138840,0.273389,7.452000,2456.366366

-0.253126,1.974827,8.962822,14.782940,-0.052038,0.096472,0.201444,7.448000,2456.366366

-0.226781,1.241951,10.390254,14.785881,-0.021661,0.118589,0.207306,7.432000,2456.366366

-0.078290,1.840706,9.530441,14.791763,0.007650,0.080484,0.173199,7.432000,2456.366366

-1.053063,1.517379,9.346025,14.774117,0.042024,0.104999,0.196115,7.428000,2456.366366

-0.521369,0.420460,9.884905,14.777058,0.006851,0.051174,0.235285,7.424000,2456.366366

0.513280,1.356912,8.747270,14.785881,-0.004607,0.062631,0.235552,7.420000,2456.366366

-0.126190,0.418065,10.193862,14.768234,0.002054,0.139906,0.220363,7.412000,2456.366366

-0.047155,3.028636,9.298124,14.744705,0.052149,0.110861,0.177196,7.420000,2456.366366

-0.006439,0.703072,9.760364,14.765293,0.026569,0.115391,0.173199,7.412000,2456.366366

0.482145,1.004844,9.489726,14.771175,-0.007005,0.057036,0.130832,7.412000,2456.366366

0.379159,1.943692,9.020303,14.768234,-0.037382,0.152962,0.126835,7.400000,2456.366366

0.003141,1.311407,9.441826,14.774117,-0.005407,0.138307,0.193184,7.388000,2456.366366

-0.485443,1.977222,10.122011,14.768234,-0.004074,0.134576,0.119107,7.396000,2456.366366

0.197137,1.550909,9.690907,14.774117,0.017243,0.063964,0.047163,7.408000,2456.366366

-0.130980,1.792806,9.968730,14.777058,-0.016332,0.122053,0.043699,7.380000,2456.366366

0.142052,1.012030,9.875324,14.765293,-0.029388,0.167618,-0.066617,7.372000,2456.366366

-0.171696,1.584439,9.259805,14.771175,-0.053370,0.164154,-0.101790,7.364000,2456.366366

-0.813561,1.529354,9.796288,14.756470,-0.015266,0.123918,-0.122041,7.340000,2456.366366

-0.808771,0.121082,9.779524,14.777058,0.060143,0.043713,-0.209174,7.328000,2456.366366

-0.377667,0.592901,10.050160,14.777058,-0.086678,0.012537,-0.267263,7.324000,2456.366366

-0.662675,1.455108,10.074111,14.759411,-0.093606,0.040782,-0.181995,7.332000,2456.366366

-0.842301,0.683912,10.177097,14.750587,-0.033119,0.033854,-0.163343,7.284000,2456.366366

-0.645909,0.480335,9.710068,14.762352,-0.049107,0.010671,-0.224896,7.308000,2456.366366

-0.219596,1.819151,8.768826,14.759411,-0.059232,0.006674,-0.129769,7.256000,2456.366366

-0.629144,1.098250,8.826305,14.768234,-0.038182,0.012537,0.007460,7.216000,2456.366366

-0.142955,-0.733940,9.231064,14.762352,-0.028056,-0.015442,-0.047965,7.204000,2456.366366

-0.260311,0.473150,9.815449,14.782940,-0.009937,-0.061807,-0.127104,7.184000,2456.366366

-0.102240,1.220396,9.008327,14.788822,-0.055768,-0.045286,-0.068749,7.156000,2456.366366

0.288148,0.789293,9.322075,14.768234,0.030566,-0.040756,-0.053560,7.072000,2456.366366

0.415084,0.729417,9.152028,14.759411,-0.038981,-0.023702,-0.104188,7.032000,2456.366366

-0.310607,1.570069,9.537626,14.771175,-0.057900,-0.025301,-0.082605,7.024000,2456.366366

0.101337,-0.384267,10.783037,14.762352,-0.124515,-0.024502,-0.038638,6.872000,2456.366366

0.932408,1.711375,10.397439,14.785881,0.061209,0.058901,-0.002133,6.724000,2456.366366

-0.231571,-1.651232,9.166399,14.756470,-0.033918,-0.022903,-0.052761,6.576000,2456.366366

-0.617169,-0.374687,9.760364,14.768234,-0.021661,0.047443,-0.100991,6.436000,2456.366366

0.161212,-0.911171,9.848979,14.779999,-0.038182,-0.073797,-0.159079,6.260000,2456.366366

0.185162,0.034862,9.192744,14.797646,-0.051505,-0.064738,-0.174268,6.128000,2456.366366

-0.444728,0.121082,9.870534,14.785881,0.073200,-0.110836,-0.135897,5.980000,2456.366366

-0.363297,0.264784,9.772339,14.794704,-0.007005,-0.079393,-0.069815,5.848000,2456.366366

0.058226,0.786898,9.408296,14.785881,-0.006739,-0.146009,-0.090599,5.712000,2456.366366

0.542020,1.026400,9.472961,14.794704,0.004186,-0.062339,-0.062087,5.584000,2456.366366

0.455800,0.281549,9.884905,14.777058,0.013779,-0.085788,-0.055159,5.452000,2456.366366

0.633031,0.865933,10.531560,14.777058,-0.042445,-0.103641,-0.028513,5.328000,2456.366366

1.892811,-0.125605,9.578342,14.785881,0.028701,-0.127356,-0.017055,5.192000,2456.366366

-0.780031,-1.050082,9.233459,14.797646,0.029233,0.013336,0.007460,5.064000,2456.366366

0.110917,-0.556708,9.540022,14.791763,-0.028322,-0.047418,-0.065018,4.912000,2456.366366

-0.059130,0.310289,9.700488,14.788822,-0.114390,-0.056744,-0.096461,4.784000,2456.366366

0.283358,1.462293,9.959150,14.782940,0.040958,-0.037292,-0.049830,4.668000,2456.366366

0.261803,0.492310,9.386741,14.782940,0.011114,-0.018906,-0.003199,4.536000,2456.366366

0.357604,0.887489,9.961545,14.794704,-0.048041,-0.075663,0.036770,4.416000,2456.366366

0.896483,1.088670,9.899275,14.803528,0.028967,-0.038624,0.061818,4.300000,2456.366366

0.865348,0.846773,9.353210,14.771175,0.022838,-0.046618,0.079671,4.180000,2456.366366

1.100060,0.825218,9.449011,14.788822,0.026569,0.024527,0.045830,4.040000,2456.366366

0.187557,1.426368,9.508886,14.782940,0.010315,-0.002119,0.054623,3.924000,2456.366366

0.024696,1.754486,9.384345,14.785881,0.015910,-0.017041,0.107916,3.804000,2456.366366

-0.066315,2.068233,9.851375,14.803528,0.020707,-0.018107,0.112712,3.664000,2456.366366

-0.159721,2.338870,9.147239,14.809410,0.015644,0.017066,0.084201,3.552000,2456.366366

-0.837511,2.446646,9.056228,14.800587,0.010048,-0.015708,0.085533,3.448000,2456.366366

0.053436,2.808294,9.683722,14.815292,0.006851,-0.025035,0.074075,3.348000,2456.366366

1.004259,1.919742,9.458591,14.803528,-0.010736,-0.000520,0.066081,3.272000,2456.366366

0.132472,1.615574,9.530441,14.812351,0.007650,0.005076,-0.019720,3.152000,2456.366366

0.158817,2.096973,9.381950,14.809410,0.006851,0.003210,-0.050629,3.108000,2456.366366

0.486935,2.398746,9.166399,14.788822,-0.003275,0.023728,-0.019720,3.060000,2456.366366

0.357604,2.367611,9.549602,14.815292,-0.006473,0.015201,0.017852,3.020000,2456.366366

0.391134,1.936507,9.475356,14.791763,-0.001676,0.042380,0.027444,2.976000,2456.366366

0.156422,1.883817,9.408296,14.794704,-0.000077,0.022929,0.012256,2.924000,2456.366366

0.585131,1.984407,9.528047,14.812351,-0.001143,0.031455,-0.022651,2.876000,2456.366366

0.865348,2.161639,9.396320,14.788822,-0.006206,0.046910,-0.007729,2.836000,2456.366366

0.937198,2.070628,9.259805,14.791763,-0.013667,0.065563,0.026645,2.792000,2456.366366

-0.102240,1.867052,9.475356,14.806469,-0.000877,0.068227,-0.003465,2.752000,2456.366366

-0.087870,1.867052,9.458591,14.797646,-0.008871,0.060233,-0.058357,2.712000,2456.366366

0.218693,1.914952,9.343630,14.797646,-0.010736,0.060766,-0.071946,2.672000,2456.366366

0.031881,1.835916,9.506492,14.788822,-0.003541,0.064230,-0.035974,2.608000,2456.366366

-0.722550,1.680240,9.532837,14.821175,-0.001410,0.062631,-0.018121,2.572000,2456.366366

-0.576454,1.946087,9.477751,14.803528,-0.000610,0.031189,-0.015456,2.532000,2456.366366

-0.430358,2.267020,9.482541,14.791763,-0.001943,0.025593,-0.000001,2.484000,2456.366366

-0.018414,2.192774,9.451406,14.797646,-0.000344,0.012537,0.035705,2.452000,2456.366366

0.628241,2.010753,9.250224,14.803528,-0.007272,0.042647,0.061818,2.404000,2456.366366

0.206717,1.780831,9.417875,14.797646,-0.001410,0.025860,0.045564,2.372000,2456.366366

0.170792,1.768856,9.480146,14.791763,0.002587,0.049042,0.014121,2.332000,2456.366366

-0.123795,1.982013,9.554392,14.794704,-0.000344,0.023461,-0.018387,2.296000,2456.366366

-0.087870,2.379586,9.307705,14.809410,-0.000877,0.026126,-0.026914,2.256000,2456.366366

-0.245941,2.286180,9.489726,14.777058,-0.008071,0.021863,-0.014390,2.224000,2456.366366

-0.238756,1.974827,9.429851,14.806469,-0.015799,0.026659,0.006127,2.188000,2456.366366

-0.078290,1.725745,9.475356,14.800587,-0.014733,0.016267,0.018651,2.148000,2456.366366

-0.147745,1.711375,9.413086,14.800587,0.000455,0.016800,0.027711,2.108000,2456.366366

-0.466283,1.768856,9.410690,14.809410,0.002054,0.020797,0.010657,2.072000,2456.366366

-0.595614,2.020333,9.628637,14.818233,0.004719,0.001079,-0.021052,2.040000,2456.366366

-0.583639,2.362821,9.307705,14.815292,0.000189,-0.005583,-0.025582,2.008000,2456.366366

-0.451913,2.166429,9.410690,14.797646,-0.012335,-0.027966,0.009858,1.964000,2456.366366

-0.061525,1.819151,9.578342,14.800587,-0.007005,-0.021571,0.018651,1.932000,2456.366366

-0.150140,1.620364,9.666958,14.803528,0.000722,-0.029032,0.026112,1.900000,2456.366366

0.108522,1.862262,9.413086,14.815292,0.004985,-0.037558,0.022648,1.872000,2456.366366

0.350419,2.202354,9.355605,14.829998,0.005518,-0.025568,0.027178,1.840000,2456.366366

-0.008834,2.293365,9.377160,14.815292,-0.000610,-0.013843,0.021582,1.812000,2456.366366

-0.011229,1.902977,9.477751,14.824116,-0.008604,-0.028499,-0.010393,1.768000,2456.366366

0.254618,1.670660,9.417875,14.806469,-0.007538,-0.024235,-0.019720,1.736000,2456.366366

0.288148,1.692215,9.520862,14.815292,0.003120,-0.009047,-0.026381,1.704000,2456.366366

-0.478258,1.960457,9.432246,14.815292,-0.002209,-0.010912,-0.033842,1.680000,2456.366366

-0.540529,2.197564,9.508886,14.818233,-0.004074,-0.029032,-0.023450,1.652000,2456.366366

-0.054340,2.195169,9.492122,14.821175,-0.000877,-0.037026,0.007460,1.620000,2456.366366

0.185162,2.068233,9.372371,14.829998,-0.001143,-0.029032,0.054890,1.592000,2456.366366

0.127682,1.902977,9.324470,14.832939,-0.000077,-0.025568,0.068480,1.568000,2456.366366

0.154027,1.917347,9.501701,14.815292,-0.000877,-0.022903,0.029576,1.540000,2456.366366

0.280963,2.092183,9.422666,14.827057,-0.000077,-0.020505,-0.010393,1.512000,2456.366366

0.110917,2.166429,9.274175,14.815292,-0.005940,-0.016508,-0.015456,1.480000,2456.366366

-0.145350,1.809571,9.460986,14.815292,-0.005673,-0.027966,-0.039971,1.424000,2456.366366

-0.145350,1.665870,9.362790,14.824116,-0.001143,-0.032762,-0.028513,1.400000,2456.366366

-0.016019,1.826336,9.604687,14.829998,0.000455,-0.037026,-0.005331,1.376000,2456.366366

0.091757,2.125714,9.358000,14.812351,-0.000077,-0.035160,0.041567,1.352000,2456.366366

-0.116610,1.943692,9.604687,14.812351,0.002054,-0.039957,0.054091,1.316000,2456.366366

0.177977,2.123319,9.398716,14.827057,0.004186,-0.046352,0.017852,1.296000,2456.366366

0.278568,2.223909,9.211904,14.829998,0.003920,-0.042088,0.019983,1.272000,2456.366366

0.146842,2.144874,9.633428,14.821175,0.001521,-0.039957,0.022648,1.256000,2456.366366

0.486935,1.993988,9.324470,14.821175,-0.008604,-0.034627,0.015986,1.232000,2456.366366

0.228273,1.802386,9.492122,14.821175,-0.000344,-0.024502,0.009058,1.212000,2456.366366

-0.044760,1.946087,9.449011,14.838821,-0.000610,-0.024502,-0.006663,1.196000,2456.366366

0.046251,2.010753,9.489726,14.818233,-0.004874,-0.036226,-0.007995,1.176000,2456.366366

-0.051945,1.970037,9.453801,14.818233,-0.002476,-0.028232,-0.004265,1.164000,2456.366366

-0.051945,1.938902,9.472961,14.841763,-0.000077,-0.041022,-0.005064,1.148000,2456.366366

0.065411,1.840706,9.446616,14.827057,0.001788,-0.051148,0.013322,1.136000,2456.366366

0.094152,1.821546,9.609477,14.829998,0.005785,-0.046085,0.018918,1.124000,2456.366366

-0.004044,2.082603,9.482541,14.835880,0.006584,-0.049283,0.002930,1.112000,2456.366366

0.048646,2.180799,9.228669,14.821175,0.000189,-0.054079,0.012522,1.104000,2456.366366

0.362394,2.211934,9.432246,14.832939,0.002321,-0.060208,0.024780,1.096000,2456.366366

0.192347,1.982013,9.401111,14.809410,-0.001676,-0.039957,0.027178,1.080000,2456.366366

0.209112,1.835916,9.492122,14.818233,-0.002209,-0.049816,0.005328,1.076000,2456.366366

0.362394,2.053863,9.362790,14.818233,0.002854,-0.053280,-0.018121,1.064000,2456.366366

0.534835,2.243070,9.470566,14.815292,-0.001143,-0.044486,-0.014390,1.056000,2456.366366

0.656981,2.087393,9.413086,14.821175,-0.008338,-0.034094,-0.012525,1.052000,2456.366366

0.345629,1.816756,9.403505,14.812351,-0.007272,-0.027433,-0.035441,1.044000,2456.366366

0.321678,1.862262,9.477751,14.821175,-0.005407,-0.030097,-0.052494,1.040000,2456.366366

0.412689,1.970037,9.460986,14.821175,-0.003808,-0.027699,-0.031977,1.036000,2456.366366

0.168397,1.948482,9.484936,14.841763,0.000988,-0.025035,0.011457,1.028000,2456.366366

