ax,ay,az,gx,gy,gz,temp,volt,vel

1.581459,1.407208,9.451406,16.021175,-0.001410,-0.016774,0.042899,0.916000,0.000000

1.670074,1.409603,9.403505,16.038822,-0.004874,-0.023436,0.019450,0.920000,0.000000

1.753900,1.445528,9.425060,16.050587,-0.005407,-0.014376,0.013322,0.916000,0.000000

1.722765,1.467083,9.410690,16.050587,-0.003808,-0.012244,0.012789,0.916000,0.000000

1.650914,1.433553,9.401111,16.050587,-0.005407,-0.007981,0.013588,0.916000,0.000000

1.607804,1.356912,9.398716,16.065292,-0.008338,-0.009313,0.008525,0.912000,0.000000

1.617384,1.285062,9.489726,16.065292,-0.004074,-0.007182,-0.000001,0.912000,0.000000

1.636544,1.210816,9.405901,16.062351,-0.003541,-0.010912,0.001065,0.908000,0.000000

1.670074,1.189261,9.396320,16.088821,-0.003541,-0.011978,0.014121,0.912000,0.000000

1.579064,1.313802,9.475356,16.085880,0.000189,-0.007715,0.026112,0.908000,0.000000

1.667679,1.361702,9.463381,16.082939,0.002054,-0.001852,0.032241,0.912000,0.000000

1.476078,1.411998,9.401111,16.106470,0.000988,-0.006382,0.029310,0.908000,0.000000

1.636544,1.385653,9.408296,16.106470,-0.003275,-0.012511,0.023447,0.908000,0.000000

1.720370,1.400023,9.410690,16.100588,-0.006206,-0.008248,0.014921,0.904000,0.000000

1.737135,1.309012,9.410690,16.109411,-0.004607,0.001878,-0.009594,0.904000,0.000000

1.547928,1.409603,9.427456,16.106470,-0.003541,-0.000254,-0.024516,0.904000,0.000000

1.490448,1.416788,9.427456,16.118235,-0.006739,-0.004517,-0.026914,0.904000,0.000000

1.480868,1.347332,9.429851,16.138823,-0.004341,0.001612,-0.024782,0.908000,0.000000

1.466498,1.503009,9.468171,16.141764,-0.004874,-0.005050,-0.016256,0.904000,0.000000

1.387462,1.400023,9.420271,16.141764,-0.006473,-0.010113,-0.000534,0.900000,0.000000

1.574274,1.280272,9.425060,16.141764,-0.009937,-0.019705,0.014388,0.900000,0.000000

1.670074,1.251532,9.432246,16.159410,0.001255,-0.007981,0.014921,0.904000,0.000000

1.454523,1.421578,9.444221,16.159410,-0.005140,-0.010113,0.005594,0.900000,0.000000

1.545533,1.388048,9.408296,16.174116,-0.008338,-0.015176,-0.005864,0.900000,0.000000

1.641334,1.340147,9.453801,16.194704,-0.006206,-0.011978,-0.012525,0.900000,0.000000

1.624569,1.337752,9.417875,16.174116,-0.006206,-0.010379,-0.005864,0.900000,0.000000

1.617384,1.352122,9.475356,16.177057,-0.006739,-0.011712,0.009591,0.900000,0.000000

1.674865,1.313802,9.484936,16.191763,-0.004874,-0.009313,0.020250,0.900000,0.000000

1.466498,1.241951,9.410690,16.194704,-0.002742,-0.008514,0.023447,0.900000,0.000000

1.607804,1.225186,9.429851,16.194704,-0.005407,-0.013044,0.021849,0.900000,0.000000

1.672469,1.323382,9.451406,16.200586,-0.003541,-0.008514,0.011989,0.900000,0.000000

1.682050,1.380862,9.405901,16.212351,-0.007272,-0.007182,-0.006663,0.900000,0.000000

1.665284,1.455108,9.489726,16.185881,-0.008871,-0.006915,-0.020252,0.900000,0.000000

1.526373,1.368887,9.487331,16.206469,0.001521,-0.001852,-0.022651,0.896000,0.000000

1.559904,1.270692,9.451406,16.206469,-0.008871,-0.003451,-0.020519,0.896000,0.000000

1.619779,1.297037,9.437036,16.203527,-0.007805,0.000812,-0.013058,0.896000,0.000000

1.607804,1.364097,9.441826,16.197645,-0.000610,-0.001852,0.003729,0.896000,0.000000

1.715580,1.330567,9.415481,16.235882,-0.003808,-0.006382,0.012256,0.896000,0.000000

1.758690,1.325777,9.401111,16.218235,-0.004341,-0.000787,0.010124,0.896000,0.000000

1.528768,1.337752,9.460986,16.230000,-0.001943,0.001612,0.002397,0.896000,0.000000

1.550323,1.292247,9.494516,16.227058,-0.005407,-0.003185,-0.006929,0.896000,0.000000

1.531163,1.253927,9.439431,16.247646,0.000189,0.002944,-0.013324,0.892000,0.000000

1.567089,1.330567,9.463381,16.262352,-0.003541,-0.001852,-0.007196,0.892000,0.000000

1.626964,1.344937,9.472961,16.265293,-0.003541,-0.001320,0.001597,0.892000,0.000000

1.658099,1.301827,9.398716,16.253529,0.000722,0.003743,0.013055,0.896000,0.000000

1.564694,1.366493,9.386741,16.238823,-0.003541,-0.000520,0.014921,0.892000,0.000000

1.559904,1.309012,9.516071,16.253529,0.000722,0.002944,0.005061,0.892000,0.000000

1.612594,1.364097,9.396320,16.279999,-0.006206,0.007207,-0.001867,0.892000,0.000000

1.717975,1.337752,9.449011,16.271175,-0.004874,-0.000787,-0.000801,0.888000,0.000000

1.715580,1.309012,9.425060,16.265293,-0.003541,0.009339,-0.000801,0.892000,0.000000

1.629359,1.373677,9.401111,16.279999,-0.001410,0.010671,-0.000534,0.892000,0.000000

1.662889,1.486243,9.480146,16.282940,-0.005140,0.010138,0.001331,0.888000,0.000000

1.694025,1.392838,9.422666,16.291763,-0.002742,0.011737,-0.002666,0.892000,0.000000

1.717975,1.289852,9.362790,16.288822,-0.002476,0.011737,-0.005597,0.892000,0.000000

1.672469,1.318592,9.417875,16.294704,0.000988,0.016267,-0.006929,0.892000,0.000000

1.514398,1.330567,9.470566,16.303528,-0.002476,0.018932,-0.022651,0.892000,0.000000

1.394647,1.380862,9.429851,16.288822,-0.001410,0.014668,-0.043435,0.888000,0.000000

1.353932,1.337752,9.444221,16.297646,-0.004074,0.012270,-0.041836,0.888000,0.000000

1.320402,1.354517,9.542417,16.327057,-0.007538,0.004809,-0.026648,0.892000,0.000000

1.440153,1.349727,9.489726,16.327057,-0.001676,0.004809,-0.009061,0.892000,0.000000

1.490448,1.206026,9.460986,16.312351,-0.001410,0.002144,-0.009594,0.888000,0.000000

1.509608,1.093460,9.482541,16.324116,-0.001676,0.002144,-0.015456,0.888000,0.000000

1.401832,1.215606,9.449011,16.332939,0.003120,-0.002385,-0.015190,0.888000,0.000000

1.437757,1.395233,9.429851,16.324116,0.004985,-0.006915,-0.007995,0.888000,0.000000

1.504818,1.620364,9.477751,16.329998,-0.000877,-0.007715,0.010124,0.892000,0.000000

1.346747,1.512589,9.384345,16.327057,-0.000344,-0.010646,0.021849,0.892000,0.000000

1.279686,1.380862,9.489726,16.318233,-0.006206,-0.013577,0.006127,0.888000,0.000000

1.203046,1.426368,9.504096,16.338821,-0.003808,-0.019972,-0.018654,0.884000,0.000000

1.404227,1.344937,9.516071,16.347647,-0.009670,-0.034094,-0.027447,0.892000,0.000000

1.770665,1.103040,9.185558,16.344706,-0.013667,-0.022370,-0.026648,0.884000,0.000000

0.747992,1.136571,9.789104,16.353529,-0.008604,-0.048217,-0.023983,0.884000,0.000000

0.249828,1.244346,9.904064,16.362352,-0.005407,-0.070866,-0.045833,0.888000,0.000000

0.558785,1.711375,9.508886,16.353529,0.001521,-0.101243,-0.010660,0.888000,0.000000

1.562299,1.541329,8.859837,16.347647,-0.046442,-0.164395,0.050627,0.884000,0.000000

2.244879,0.837193,9.278965,16.344706,-0.019263,-0.138015,0.078339,0.888000,0.000000

3.114271,1.179681,9.214299,16.353529,-0.000344,-0.104441,0.062617,0.888000,0.000000

2.295175,1.984407,8.838281,16.362352,-0.023526,-0.050349,0.053558,0.888000,0.000000

2.383790,1.955667,9.887300,16.353529,0.009515,-0.032229,0.058887,0.884000,0.000000

2.618502,1.479059,9.231064,16.371176,0.011380,-0.024235,0.007726,0.884000,0.000000

1.629359,1.404813,9.259805,16.347647,-0.036583,-0.020771,-0.003998,0.884000,0.000000

2.240089,1.507799,9.623847,16.365294,-0.046708,-0.058875,0.028777,0.884000,0.000000

2.951410,1.392838,9.245434,16.391764,-0.019529,-0.005849,0.010391,0.884000,0.000000

1.799406,1.792806,9.286150,16.368235,0.011114,0.012537,0.005061,0.884000,0.000000

2.620897,1.958062,9.013118,16.374117,0.001255,-0.000254,0.026112,0.888000,0.000000

2.400555,2.238280,9.195139,16.388823,-0.002476,0.052239,0.105251,0.884000,0.000000

1.895206,2.597533,9.266990,16.394705,0.020973,0.061299,0.153215,0.884000,0.000000

2.640057,2.070628,8.814330,16.391764,-0.014999,0.048775,0.095925,0.888000,0.000000

1.744320,3.469320,9.453801,16.397646,-0.000610,0.063164,0.037836,0.888000,0.000000

2.426901,2.439461,9.961545,16.394705,0.044422,0.089011,-0.047965,0.884000,0.000000

2.019747,2.410721,8.687394,16.418234,-0.023260,0.069027,-0.173735,0.948000,0.000000

0.280963,2.937625,9.379556,16.403528,0.083325,0.134043,-0.258470,0.952000,0.000000

2.017352,2.944810,9.238249,16.409410,0.056946,0.055171,-0.244614,1.132000,0.000000

2.537071,1.421578,9.202324,16.397646,0.040425,0.101801,-0.262200,1.152000,0.000000

1.789825,2.738839,8.761641,16.412352,0.044688,0.067694,-0.273392,1.376000,0.000000

1.799406,3.150782,9.092153,16.412352,0.007384,0.123918,-0.241150,2.196000,0.000000

1.440153,3.246583,9.096943,16.418234,0.068936,0.150831,-0.070347,3.620000,0.000000

0.685721,2.714888,8.625124,16.432940,0.018308,0.150031,-0.138828,3.824000,0.000000

1.509608,3.498060,9.463381,16.424116,0.004985,0.110595,-0.158546,4.108000,0.000000

1.612594,2.894515,9.669353,16.456469,0.062008,0.145235,-0.127903,5.044000,0.000000

2.012562,2.508917,9.504096,16.435881,0.000988,0.164154,-0.127370,5.228000,0.000000

1.626964,2.611902,9.262199,16.421175,0.074532,0.187869,-0.100991,5.208000,0.000000

0.939593,1.277877,8.955637,16.427057,0.050018,0.170282,-0.044767,5.260000,0.000000

0.118102,2.173614,9.322075,16.444704,-0.032319,0.190001,-0.041569,5.612000,0.000000

-0.265101,3.062166,9.022697,16.438822,0.096915,0.183605,-0.037573,5.604000,0.000000

-0.063920,1.555699,9.247829,16.444704,0.020973,0.139906,-0.044767,5.560000,0.000000

0.410294,2.578372,9.192744,16.450586,-0.014733,0.130579,-0.065018,6.052000,0.000000

1.018629,3.440579,9.681328,16.435881,-0.003275,0.125517,-0.110050,6.228000,0.000000

1.009049,3.246583,9.156818,16.462351,0.056146,0.108996,-0.177732,6.336000,0.000000

1.191071,3.304063,9.164003,16.438822,0.059610,0.109262,-0.202246,6.736000,0.000000

1.037789,3.318433,9.384345,16.453527,0.048685,0.160423,-0.137230,6.780000,0.000000

1.284476,2.532867,9.089758,16.456469,0.048152,0.160157,0.011989,6.892000,0.000000

-0.202831,2.731653,9.939990,16.438822,0.019907,0.123918,0.114311,7.104000,0.000000

-0.068710,2.317315,10.155541,16.468235,0.026569,0.110328,0.222228,7.120000,0.000000

-0.348927,1.852681,9.542417,16.453527,0.010581,0.097538,0.302966,7.140000,0.000000

-0.384852,2.417906,10.136381,16.465292,0.014312,0.073024,0.272323,7.168000,0.000000

0.168397,1.668265,9.832214,16.468235,0.052682,0.061832,0.229423,7.188000,0.000000

0.048646,2.803504,9.686118,16.468235,0.074532,0.113792,0.208639,7.176000,0.000000

0.120497,2.432276,9.820239,16.474117,0.096382,0.112726,0.208106,7.212000,0.000000

-0.451913,2.417906,9.714858,16.474117,0.046287,0.133510,0.225426,7.236000,0.000000

-0.598009,1.783226,10.054951,16.465292,0.058011,0.077820,0.230755,7.216000,0.000000

-0.454308,1.637130,10.581855,16.468235,0.040158,0.074089,0.284048,7.224000,0.000000

0.793497,2.190379,8.483818,16.465292,0.009515,0.081817,0.467907,7.232000,0.000000

0.161212,0.822823,9.657377,16.471176,-0.009137,0.095140,0.662158,7.204000,0.000000

0.992284,1.993988,10.550720,16.477058,0.024704,0.059434,0.814308,7.208000,0.000000

0.666561,1.986803,9.401111,16.482941,0.148875,0.094341,0.833227,7.208000,0.000000

-0.358507,2.178404,8.680209,16.474117,0.016976,0.089811,0.781533,7.192000,0.000000

0.779127,2.250255,9.781919,16.488823,0.100379,0.092475,0.685607,7.196000,0.000000

1.217416,1.340147,9.410690,16.480000,-0.023793,0.122053,0.525996,7.220000,0.000000

1.049764,3.275323,9.796288,16.485882,0.017509,0.098337,0.283515,7.256000,0.000000

1.650914,2.779554,8.802356,16.471176,0.073200,0.188402,-0.071413,7.236000,0.000000

1.732345,2.027518,9.389135,16.480000,-0.005407,0.097805,-0.336277,7.252000,0.000000

2.671193,2.192774,9.777128,16.482941,0.043889,0.277400,-0.537723,7.264000,0.000000

0.621056,1.840706,9.671748,16.485882,0.012979,0.346414,-0.781269,7.280000,0.000000

-0.221991,-0.034594,9.243039,16.497646,0.056413,0.224108,-0.905707,7.228000,0.000000

0.096547,-0.839321,9.104128,16.491764,-0.124249,0.157492,-0.929156,7.232000,0.000000

-0.938102,2.087393,9.595107,16.485882,0.068403,0.131912,-0.865738,7.188000,0.000000

-0.186066,1.134176,11.044094,16.480000,-0.089609,0.098071,-0.808182,7.212000,0.000000

-0.552504,-0.209430,8.663445,16.480000,-0.019529,0.087679,-0.713854,7.172000,0.000000

-0.983607,2.255045,9.245434,16.506470,0.060410,0.163887,-0.590482,7.144000,0.000000

-1.000372,1.989197,9.494516,16.488823,-0.054702,0.139373,-0.518004,7.208000,0.000000

-1.136889,1.881422,9.626243,16.482941,-0.039514,0.203057,-0.491891,7.192000,0.000000

0.874928,1.931717,8.960427,16.509411,-0.090675,0.080751,-0.408488,7.240000,0.000000

1.950292,3.852523,8.991562,16.503529,0.068670,-0.341592,-0.463646,7.204000,0.000000

-2.904413,1.016820,10.701606,16.497646,0.177387,0.067694,-0.422611,7.196000,0.000000

-0.727340,0.909044,8.582014,16.509411,-0.081082,0.131912,-0.278721,7.208000,0.000000

-2.770292,3.119647,9.444221,16.485882,0.005518,0.153762,-0.383974,7.204000,0.000000

-0.478258,2.092183,8.488607,16.488823,-0.019529,0.062898,-0.443928,7.240000,1724.734795

0.072596,1.900582,9.396320,16.506470,-0.041113,0.043713,-0.407955,7.252000,1724.734795

0.072596,1.917347,9.920830,16.503529,0.031099,0.086080,-0.364256,7.228000,1724.734795

-1.455426,2.643038,10.028605,16.506470,0.058011,0.094341,-0.423677,7.248000,1724.734795

-1.536857,1.625154,9.535232,16.512352,-0.017131,-0.002385,-0.470841,7.248000,1724.734795

-0.993187,2.257440,9.025092,16.503529,0.058011,-0.015708,-0.271793,7.256000,1724.734795

-1.912875,2.180799,8.780800,16.506470,-0.017131,-0.047684,-0.175867,7.268000,1724.734795

-2.046996,2.003568,9.120893,16.524117,0.028434,-0.088986,-0.191854,7.268000,1724.734795

-0.686625,2.528077,8.910131,16.509411,0.083592,-0.187044,-0.105254,7.280000,1724.734795

0.163607,2.808294,9.401111,16.532940,0.091319,-0.140146,-0.065018,7.292000,1724.734795

-0.442333,2.405931,9.319680,16.535881,0.040425,-0.104707,-0.061288,7.312000,1724.734795

-1.323700,1.922137,9.525652,16.532940,-0.009404,-0.106039,-0.022651,7.296000,1724.734795

-1.728458,2.367611,8.989167,16.547646,0.029766,-0.130554,0.035705,7.300000,1724.734795

-1.819469,2.961576,9.494516,16.541763,0.084924,-0.225414,0.111646,7.304000,1724.734795

-1.024323,2.561607,9.666958,16.527058,-0.005673,-0.207295,0.216100,7.316000,1724.734795

-1.548832,3.359149,9.626243,16.535881,0.044155,-0.189176,0.339472,7.332000,1724.734795

-1.026718,3.246583,9.250224,16.550587,-0.032053,-0.231543,0.468173,7.316000,1724.734795

-0.906967,2.825059,9.913645,16.559410,0.128890,-0.153203,0.564633,7.336000,1724.734795

-0.739315,3.217843,8.680209,16.559410,0.074532,-0.179583,0.717049,7.336000,1724.734795

-1.215924,2.884935,9.434641,16.547646,-0.025924,-0.209160,0.900908,7.356000,1724.734795

-1.287775,2.568792,9.247829,16.553528,0.063341,-0.145476,1.080238,7.352000,1724.734795

-1.321305,2.748419,9.717253,16.568233,-0.052571,-0.136682,1.146587,7.348000,1724.734795

-0.748895,2.484967,9.307705,16.559410,0.068403,-0.096980,1.124470,7.352000,1724.734795

-0.339347,2.360425,9.034673,16.550587,0.019374,-0.092450,1.100489,7.372000,1724.734795

0.027091,3.145992,9.255014,16.565292,-0.006473,-0.087120,1.011757,7.372000,1724.734795

-0.518973,2.918465,9.523256,16.550587,0.046287,-0.009580,0.891849,7.388000,1724.734795

-0.277076,2.152059,10.095666,16.550587,-0.009937,0.005609,0.761282,7.388000,1724.734795

-0.933312,3.210657,10.354328,16.556469,0.028434,0.050641,0.605401,7.404000,1724.734795

-0.621959,3.193892,8.491003,16.562351,0.047353,0.016267,0.422608,7.408000,1724.734795

-1.120123,2.096973,9.760364,16.568233,0.012180,0.023994,0.281383,7.404000,1724.734795

-0.923732,2.664593,9.238249,16.565292,0.030832,0.058368,0.219031,7.416000,1724.734795

-0.485443,2.837034,10.119617,16.550587,0.058544,0.014135,0.167071,7.420000,1724.734795

-0.051945,1.589229,8.972402,16.562351,0.033497,-0.034361,0.210504,7.412000,1724.734795

0.074991,1.059930,10.620175,16.568233,-0.015266,-0.022637,0.407420,7.412000,1724.734795

-0.672255,3.028636,8.615544,16.577057,-0.009937,0.039716,0.735169,7.416000,1724.734795

-2.813402,1.811966,11.669194,16.588821,0.194174,-0.027433,0.986176,7.416000,1724.734795

-2.334398,-0.207035,9.446616,16.574116,0.031898,-0.115365,1.132198,7.412000,1724.734795

-3.005004,1.876631,9.674143,16.582939,0.042024,-0.076195,1.138326,7.416000,1724.734795

-1.905690,1.795201,10.536350,16.574116,0.042557,-0.132153,1.188421,7.404000,1724.734795

0.266593,0.358189,9.657377,16.582939,0.117965,-0.199568,1.166571,7.408000,1724.734795

1.428177,1.210816,9.563972,16.591763,0.133687,-0.086854,1.162308,7.416000,1724.734795

1.737135,1.407208,9.789104,16.588821,0.105442,0.013069,1.066382,7.424000,1724.734795

0.371974,2.032308,9.475356,16.579998,0.104909,0.199860,0.994703,7.420000,1724.734795

0.422269,1.172496,10.095666,16.579998,0.086523,0.090610,0.429003,7.440000,1724.734795

1.078505,2.216724,10.131592,16.585880,0.141947,0.077287,0.187322,7.436000,11.713164

1.528768,3.014266,10.373488,16.579998,0.372171,-0.024235,-0.172669,7.444000,11.713164

2.307150,-0.235776,10.957873,16.597647,0.129157,0.176411,-0.284850,7.428000,11.713164

-0.008834,0.204908,9.616662,16.600588,0.160599,0.242760,-0.256871,7.428000,11.713164

0.577946,1.541329,8.713739,16.597647,0.050550,0.199860,-0.244880,7.428000,11.713164

1.502423,2.434671,9.880115,16.579998,0.104376,0.235299,-0.258736,7.416000,11.713164

0.961149,1.483848,9.147239,16.591763,0.045754,0.246491,-0.267796,7.432000,11.713164

-0.957262,2.587952,9.295730,16.597647,0.017776,0.268873,-0.349867,7.428000,11.713164

-0.080685,3.713611,9.456196,16.621176,0.078529,0.250488,-0.483098,7.420000,11.713164

0.661771,1.179681,9.271779,16.615294,-0.036050,0.161223,-0.554243,7.420000,11.713164

0.474960,3.943534,9.247829,16.597647,0.075598,0.141238,-0.577692,7.432000,11.713164

2.125128,2.070628,9.211904,16.612352,0.134220,0.042114,-0.492424,7.420000,11.713164

0.400714,1.620364,8.910131,16.609411,-0.004874,0.123118,-0.270461,7.436000,11.713164

-1.419501,1.845496,8.474237,16.612352,-0.014999,0.078619,0.033839,7.432000,11.713164

-0.439938,3.586675,9.710068,16.600588,-0.002742,0.045311,0.257668,7.424000,11.713164

-0.492628,2.913675,8.955637,16.606470,0.130223,0.054371,0.420210,7.436000,11.713164

-0.233966,4.506363,8.526928,16.615294,0.057745,0.051973,0.438063,7.432000,11.713164

-0.657885,3.229818,9.166399,16.612352,0.020973,0.034120,0.339738,7.444000,11.713164

-0.677045,3.306458,9.338840,16.609411,-0.012868,0.041314,0.171601,7.440000,11.713164

0.886903,2.470596,10.186677,16.585880,-0.089076,0.057036,-0.002932,7.444000,11.713164

1.258131,4.475228,8.811935,16.606470,0.073466,0.074889,-0.137230,7.452000,11.713164

0.101337,2.870565,9.190349,16.621176,-0.011269,0.143103,-0.250210,7.456000,11.713164

0.757572,1.687425,9.705278,16.627058,0.059877,0.049308,-0.271793,7.452000,11.713164

0.659376,2.027518,8.680209,16.624117,0.003120,0.064230,-0.339208,7.464000,11.713164

-0.964447,3.993829,7.983259,16.615294,0.093984,0.105532,-0.288847,7.464000,11.713164

-0.114215,1.186866,9.003537,16.624117,-0.099201,0.006941,-0.295508,7.460000,11.713164

-0.902177,1.675450,11.115945,16.621176,-0.049906,0.022929,-0.338675,7.468000,11.713164

0.029486,2.719678,9.638218,16.635881,0.072667,0.060766,-0.417282,7.464000,11.713164

1.171910,2.192774,8.826305,16.627058,-0.046442,0.047177,-0.402893,7.468000,11.713164

0.649796,2.008358,10.272898,16.624117,-0.070956,0.014135,-0.256605,7.460000,11.713164

0.369579,1.962852,10.301638,16.618235,0.112103,0.003743,-0.196384,7.460000,11.713164

1.464103,1.287457,9.111313,16.612352,0.010848,-0.039690,-0.107119,7.468000,11.713164

0.393529,0.820428,9.937595,16.612352,-0.117054,-0.032496,0.077539,7.460000,11.713164

-0.538134,1.289852,10.248947,16.603529,0.073466,0.037318,0.242746,7.460000,11.713164

-0.988397,-0.551918,9.492122,16.612352,0.055080,-0.034361,0.274721,7.460000,15.305130

-0.748895,0.240833,9.221484,16.618235,-0.050972,-0.050615,0.310694,7.452000,15.305130

-1.900900,2.020333,10.050160,16.627058,0.052416,0.006408,0.370648,7.452000,15.305130

0.187557,1.431158,9.496911,16.612352,0.175255,0.005609,0.507876,7.460000,15.305130

0.671351,2.290970,9.528047,16.624117,0.034563,0.043446,0.566231,7.452000,15.305130

1.054554,2.298155,9.578342,16.629999,-0.015532,0.084481,0.618192,7.444000,15.305130

1.706000,1.742511,8.831096,16.621176,0.027901,0.108996,0.639509,7.456000,15.305130

0.448614,1.555699,9.051437,16.615294,0.104109,0.199593,0.500682,7.460000,15.305130

0.230668,1.888607,10.138777,16.627058,-0.012335,0.248889,0.387169,7.448000,15.305130

-0.303422,2.611902,9.743598,16.632940,0.127558,0.270739,0.210238,7.452000,15.305130

-0.305817,1.162916,9.516071,16.638823,-0.092273,0.265942,0.021849,7.460000,15.305130

-0.952472,4.456068,8.960427,16.621176,0.090786,0.321367,-0.126571,7.456000,15.305130

-0.947682,1.225186,8.215575,16.638823,-0.128512,0.205189,-0.215836,7.456000,15.305130

-0.231571,3.294483,10.011841,16.621176,-0.007005,0.187069,-0.317092,7.460000,15.305130

-0.255521,3.339988,9.808264,16.641764,0.063074,0.170815,-0.211839,7.456000,15.305130

-0.061525,3.562725,8.687394,16.635881,0.002854,0.108729,-0.157214,7.460000,15.305130

-1.299750,4.056099,8.155700,16.638823,0.097181,0.107131,-0.156681,7.460000,15.305130

-1.757199,4.678805,9.736413,16.632940,0.020440,0.060500,-0.118844,7.468000,15.305130

-2.123636,3.869288,8.560458,16.650587,0.015644,-0.001053,-0.138029,7.476000,15.305130

-2.478099,3.948323,8.946056,16.644705,-0.039780,0.042913,-0.104455,7.488000,15.305130

-2.205067,4.077655,9.413086,16.635881,0.009782,0.041048,0.012522,7.492000,15.305130

-2.073341,3.323223,8.495793,16.638823,-0.000610,-0.082058,0.202510,7.492000,15.305130

-2.652936,3.481295,8.673024,16.632940,0.024171,-0.046352,0.429803,7.500000,15.305130

-3.325936,2.844219,9.372371,16.641764,-0.117321,-0.134551,0.675481,7.504000,15.305130

-1.833839,3.210657,10.301638,16.618235,0.005785,-0.212624,0.871331,7.504000,15.305130

-2.643356,2.666988,10.790222,16.641764,0.170459,-0.061540,0.962195,7.508000,15.305130

-3.915111,0.612061,8.732900,16.629999,-0.001410,-0.174254,0.930752,7.504000,15.305130

-3.122360,-0.168715,10.668076,16.644705,0.050018,-0.250462,0.887852,7.512000,15.305130

-2.420619,0.523446,11.379396,16.629999,0.028701,-0.215289,0.861738,7.512000,15.305130

-2.667306,0.738997,10.392649,16.635881,0.089188,-0.199834,0.802850,7.512000,15.305130

-2.305658,1.579649,9.573552,16.632940,0.228281,-0.190774,0.697598,7.508000,15.305130

-0.181276,0.552186,9.829819,16.638823,0.002054,-0.278441,0.665089,7.512000,16.784730

2.120338,-0.180690,9.568762,16.644705,0.015111,-0.081791,0.650167,7.496000,16.784730

0.726437,0.152218,10.122011,16.641764,0.022838,-0.077261,0.557438,7.496000,16.784730

3.708236,1.385653,9.032277,16.635881,0.148076,-0.011712,0.485493,7.500000,16.784730

2.213744,1.562884,9.590317,16.629999,0.120630,0.055703,0.610464,7.504000,16.784730

1.818566,2.494547,9.908854,16.632940,0.121163,0.074356,0.511873,7.496000,16.784730

1.840121,2.374796,9.027488,16.638823,0.162998,0.227039,0.385836,7.496000,16.784730

0.223483,3.059771,8.397597,16.638823,0.138750,0.203857,0.382639,7.500000,16.784730

-1.491351,2.475386,9.305309,16.647646,0.151540,0.222775,0.249940,7.504000,16.784730

-2.291288,0.578531,10.792617,16.638823,-0.034451,0.201192,0.158011,7.500000,16.784730

-1.275800,2.820269,10.038186,16.627058,0.117166,0.144435,0.085000,7.496000,16.784730

0.122892,3.093302,10.038186,16.627058,-0.056834,0.089011,-0.070081,7.504000,16.784730

0.237853,3.543565,9.401111,16.624117,0.072933,0.037051,-0.066350,7.496000,16.784730

1.066530,3.838153,8.292216,16.618235,-0.013401,0.039982,-0.176133,7.496000,16.784730

-0.748895,3.502850,9.523256,16.629999,0.020440,0.089011,-0.211573,7.508000,16.784730

1.076110,3.522010,9.159214,16.618235,0.033497,0.050374,-0.248611,7.504000,16.784730

1.023419,3.517220,9.209509,16.632940,-0.052837,0.089544,-0.334412,7.508000,16.784730

0.439034,2.688543,9.635822,16.629999,0.054547,0.071158,-0.315493,7.512000,16.784730

0.225878,3.253768,9.266990,16.600588,0.050284,0.147899,-0.342406,7.524000,16.784730

1.765875,4.120765,6.699528,16.629999,0.026036,0.079952,-0.340807,7.524000,16.784730

1.854491,3.993829,9.729228,16.641764,-0.186601,0.111661,-0.365321,7.516000,16.784730

1.677259,3.648946,9.777128,16.615294,0.014844,0.183605,-0.383174,7.524000,16.784730

0.970729,3.665711,8.294611,16.624117,0.045754,0.135909,-0.453521,7.524000,16.784730

1.262921,2.688543,8.579618,16.606470,-0.115456,0.046111,-0.449524,7.520000,16.784730

2.110758,2.037098,9.892090,16.621176,-0.111725,0.023195,-0.304834,7.532000,16.784730

1.674865,2.916070,10.208232,16.612352,0.006318,0.077553,-0.193720,7.528000,16.784730

2.441271,1.929322,10.481264,16.627058,-0.094405,0.093275,-0.071680,7.528000,16.784730

1.648519,2.540052,8.486213,16.635881,0.117699,0.205722,0.112179,7.524000,16.784730

0.834213,1.706585,9.609477,16.618235,-0.126914,0.193465,0.177996,7.524000,16.784730

1.581459,-0.520783,10.054951,16.621176,-0.195661,0.134310,0.212636,7.520000,16.784730

0.956359,1.673055,9.369975,16.618235,0.106774,0.300849,0.191852,7.524000,16.784730

-3.199000,0.276759,10.141171,16.624117,0.038560,0.135376,0.163074,7.516000,16.784730

-1.172814,0.612061,10.378279,16.629999,-0.139704,0.176144,0.121239,7.520000,16.784730

-1.069828,0.497100,9.956755,16.629999,-0.008071,0.283795,0.265129,7.516000,16.784730

0.065411,2.140084,8.673024,16.618235,0.040425,0.235832,0.383705,7.512000,16.784730

0.685721,0.865933,9.159214,16.594706,0.010581,0.260880,0.443392,7.512000,16.784730

-1.606312,-0.070519,9.300520,16.609411,-0.126381,0.229437,0.344535,7.512000,16.784730

-1.009952,3.953113,9.743598,16.609411,0.021772,0.308843,0.254737,7.512000,16.784730

-0.186066,1.407208,8.423943,16.624117,0.020973,0.309909,0.088198,7.508000,16.784730

-2.111661,3.395074,9.374765,16.603529,-0.085079,0.294454,-0.067150,7.516000,16.784730

-1.912875,3.385494,9.432246,16.629999,0.054814,0.270206,-0.183860,7.520000,16.784730

-0.763265,2.221514,8.546088,16.618235,-0.041113,0.193997,-0.276589,7.516000,16.784730

-0.231571,4.080050,9.417875,16.612352,-0.087211,0.156693,-0.270994,7.524000,16.784730

0.264198,3.083721,9.520862,16.632940,-0.005673,0.225440,-0.158546,7.524000,16.784730

-0.564479,3.459739,8.304192,16.621176,0.071335,0.219311,-0.008795,7.528000,16.784730

-0.576454,2.975945,7.566525,16.621176,-0.102399,0.123651,0.069012,7.528000,16.784730

0.285753,3.421419,9.966335,16.606470,-0.122117,0.176944,0.109515,7.528000,16.784730

-1.120123,5.277560,8.771220,16.609411,0.070269,0.284861,0.095925,7.540000,16.784730

-3.280431,3.476505,9.300520,16.618235,-0.005407,0.099670,-0.019187,7.532000,16.784730

-1.922455,3.771092,9.113708,16.615294,0.043356,0.146834,-0.165208,7.540000,16.784730

-2.164352,4.012989,9.305309,16.627058,0.000722,0.085814,-0.062620,7.548000,16.784730

-3.495983,1.582044,8.972402,16.621176,-0.039780,-0.001320,0.043699,7.548000,16.784730

-2.985843,2.640643,10.114826,16.591763,-0.061364,-0.028765,0.110314,7.556000,16.784730

-2.602640,2.389166,9.760364,16.609411,0.010581,-0.018107,0.044498,7.552000,16.784730

-3.079249,0.559371,9.070598,16.629999,0.040425,-0.101243,-0.111916,7.556000,16.784730

-2.569110,1.277877,8.696975,16.632940,0.010048,-0.134551,-0.198782,7.552000,16.784730

-1.663793,-0.369897,9.743598,16.615294,0.071601,-0.154535,-0.265132,7.548000,9.298337

-1.594337,-0.726755,9.583132,16.606470,-0.001676,-0.192906,-0.313361,7.548000,9.298337

-1.606312,1.232371,10.155541,16.585880,0.063341,-0.305353,-0.301104,7.540000,9.298337

-0.411198,-0.583053,10.229787,16.600588,0.103044,-0.369038,-0.261401,7.536000,9.298337

-0.387247,-1.081218,9.614267,16.597647,0.052416,-0.374900,-0.173468,7.536000,9.298337

1.241366,-0.700409,8.570039,16.615294,0.060676,-0.264851,-0.160412,7.524000,9.298337

-0.085475,1.704190,10.478869,16.612352,-0.069891,-0.184379,0.017052,7.524000,9.298337

2.343075,4.400982,9.346025,16.621176,0.140615,-0.163329,0.145221,7.524000,9.298337

1.540743,1.416788,8.876601,16.606470,0.098514,-0.135350,0.244611,7.520000,9.298337

2.462826,2.815479,8.708950,16.615294,0.006051,-0.025568,0.252339,7.516000,9.298337

-1.189579,2.829849,9.908854,16.615294,0.045488,0.138573,0.210504,7.520000,9.298337

-2.717601,2.566397,8.670630,16.600588,0.032697,-0.005050,-0.004798,7.516000,9.298337

-2.708021,2.817874,9.075388,16.594706,-0.053903,-0.017307,-0.252608,7.516000,9.298337

-2.121242,3.253768,9.221484,16.597647,0.020174,-0.047418,-0.417282,7.528000,9.298337

-2.073341,4.441698,8.605964,16.612352,0.022838,-0.161463,-0.441530,7.524000,9.298337

-2.099686,2.750814,8.771220,16.612352,0.016443,-0.202765,-0.445793,7.524000,9.298337

-1.400341,3.735167,9.619058,16.612352,0.013779,-0.264052,-0.408755,7.528000,9.298337

0.103732,3.807017,8.890971,16.603529,0.092385,-0.331467,-0.256338,7.532000,9.298337

0.800682,3.294483,9.037067,16.609411,-0.005940,-0.313347,-0.247811,7.544000,9.298337

0.597106,5.897870,8.263476,16.621176,0.094783,-0.186511,-0.328816,7.540000,9.298337

0.142052,3.610626,9.386741,16.624117,0.026302,-0.242735,-0.680547,7.552000,9.298337

0.118102,4.175850,9.451406,16.621176,0.069469,-0.240336,-0.695468,7.552000,9.298337

0.412689,4.499178,8.438313,16.615294,0.028434,-0.305620,-0.584886,7.556000,9.298337

0.391134,5.478741,8.627519,16.618235,0.046287,-0.258456,-0.361324,7.564000,9.298337

0.858163,2.841825,9.496911,16.627058,0.068137,-0.316278,-0.017055,7.568000,9.298337

1.210231,3.656131,9.144843,16.627058,0.060143,-0.220352,0.153215,7.564000,9.298337

2.649637,2.530472,8.531718,16.624117,0.026835,-0.187044,0.213968,7.564000,9.298337

2.465221,1.531749,8.457473,16.615294,-0.040846,-0.108171,0.413015,7.568000,18.977556

2.196979,1.428763,10.145962,16.638823,-0.055502,-0.106572,0.565965,7.572000,18.977556

2.101178,2.405931,9.959150,16.632940,0.125959,0.009872,0.527328,7.572000,18.977556

2.002982,1.926927,11.441668,16.629999,-0.040313,0.084748,0.401824,7.560000,18.977556

1.222206,-1.538666,9.025092,16.632940,-0.008338,0.192932,0.518002,7.560000,18.977556

-0.547714,-0.935121,10.622570,16.615294,-0.002742,0.189201,0.567031,7.556000,18.977556

-1.211134,2.573582,10.833332,16.629999,0.046554,0.265942,0.416746,7.548000,18.977556

0.786312,-0.089679,8.907737,16.635881,-0.017131,0.187336,0.230489,7.544000,18.977556

-1.460216,1.766461,9.108918,16.629999,-0.007538,0.166019,0.212369,7.548000,18.977556

-0.940497,2.750814,8.898156,16.624117,0.065206,0.227305,0.152415,7.540000,18.977556

-1.412316,1.785621,9.108918,16.629999,-0.069624,0.176677,-0.029046,7.544000,18.977556

-1.500932,3.263348,9.846584,16.627058,-0.021394,0.159091,-0.109784,7.540000,18.977556

-0.267496,4.108790,8.981982,16.621176,0.058278,0.092742,-0.037306,7.540000,18.977556

-0.245941,2.918465,8.701765,16.644705,-0.025924,0.160157,0.227824,7.540000,18.977556

0.558785,2.674173,8.776011,16.627058,-0.006473,0.151896,0.321885,7.540000,18.977556

0.968334,2.702913,9.202324,16.606470,-0.038714,0.054638,0.475368,7.544000,18.977556

0.704881,4.048914,9.561577,16.638823,-0.007272,0.188135,0.580620,7.544000,18.977556

0.295333,3.131622,8.670630,16.635881,0.066805,0.277134,0.565699,7.556000,18.977556

0.350419,5.869129,8.325747,16.615294,-0.121318,0.335755,0.557971,7.556000,18.977556

0.805472,4.355477,8.146120,16.624117,0.041757,0.293921,0.458581,7.560000,18.977556

0.379159,3.282508,9.930409,16.618235,0.032431,0.465256,0.281117,7.568000,18.977556

-2.030231,3.787857,8.605964,16.624117,-0.119719,0.539866,0.177996,7.568000,18.977556

-3.534303,2.465806,8.464658,16.624117,-0.039514,0.396509,-0.037839,7.564000,18.977556

-2.643356,2.626273,8.823911,16.629999,0.002854,0.316304,-0.300571,7.572000,18.977556

-3.359467,1.900582,10.481264,16.629999,-0.028056,0.276068,-0.353864,7.576000,18.977556

-4.439620,1.725745,11.024934,16.632940,0.011114,0.151630,-0.397030,7.576000,18.977556

-4.056417,1.898187,10.227392,16.629999,-0.023260,0.094607,-0.446326,7.576000,19.657580

-4.391720,1.488638,8.998747,16.635881,0.101445,0.014935,-0.434868,7.572000,19.657580

-4.068392,0.973709,8.744875,16.621176,0.091053,-0.063672,-0.470574,7.576000,19.657580

-2.988239,-1.131513,9.468171,16.627058,-0.111725,-0.233408,-0.474837,7.572000,19.657580

-1.579967,0.214488,9.695698,16.635881,0.014578,-0.312281,-0.493756,7.564000,19.657580

-0.827931,-1.129118,10.414204,16.624117,0.076131,-0.406875,-0.418614,7.564000,19.657580

0.956359,1.483848,9.666958,16.632940,0.015377,-0.400214,-0.327484,7.552000,19.657580

1.401832,1.392838,10.601015,16.612352,-0.038448,-0.358113,-0.170537,7.548000,19.657580

3.511845,1.316197,9.106524,16.618235,0.170192,-0.192906,-0.281652,7.540000,19.657580

1.856886,-0.343551,9.868139,16.638823,-0.160221,-0.073797,-0.093796,7.540000,19.657580

-0.008834,3.414234,10.598620,16.612352,0.089720,0.084215,-0.172403,7.536000,19.657580

-0.478258,2.631063,8.802356,16.627058,0.068403,-0.097779,-0.522268,7.540000,19.657580

0.149237,2.973551,8.831096,16.635881,-0.014200,-0.180915,-0.717318,7.532000,19.657580

0.685721,4.317157,8.673024,16.647646,0.035362,-0.175053,-0.702130,7.536000,19.657580

-0.700995,3.277718,9.331655,16.624117,-0.038448,-0.262453,-0.344537,7.540000,19.657580

-0.130980,3.941139,9.384345,16.612352,-0.047241,-0.308018,-0.118844,7.544000,19.657580

-1.112938,3.931558,8.361671,16.641764,0.068137,-0.272845,0.201444,7.540000,19.657580

-1.582362,2.655013,8.126960,16.629999,0.014578,-0.330667,0.341337,7.548000,19.657580

-2.514025,4.841666,8.553273,16.635881,0.017509,-0.222483,0.355193,7.556000,19.657580

-1.282985,4.048914,7.703041,16.627058,-0.052038,-0.267516,0.374112,7.556000,19.657580

-0.404013,3.265743,9.566367,16.627058,-0.078684,-0.301356,0.375711,7.560000,19.657580

-0.902177,3.284903,10.320798,16.629999,-0.066960,-0.265384,0.255803,7.560000,19.657580

-1.282985,3.711217,9.367580,16.618235,0.067871,-0.251261,0.186256,7.560000,19.657580

-0.981212,3.866893,9.171188,16.609411,0.053748,-0.262186,0.206241,7.576000,19.657580

0.415084,4.214171,9.616662,16.635881,0.006318,-0.226480,0.264063,7.576000,19.657580

0.427059,2.853800,9.293335,16.641764,-0.016065,-0.121761,0.299502,7.576000,19.657580

0.968334,3.306458,9.123288,16.635881,-0.013134,-0.078061,0.301101,7.580000,19.657580

-0.250731,2.472991,9.202324,16.632940,-0.018996,-0.011179,0.465242,7.584000,19.657580

1.025814,0.058812,10.634545,16.638823,-0.093339,-0.078594,0.545980,7.588000,19.657580

1.653309,3.050191,11.360236,16.671175,0.095849,0.066628,0.551843,7.592000,19.657580

2.182609,2.638248,9.810658,16.638823,0.028701,0.153495,0.528927,7.584000,19.657580

3.111876,0.118687,9.808264,16.647646,0.029500,0.211850,0.606201,7.584000,19.657580

4.608763,0.444410,10.627360,16.635881,0.036694,0.387716,0.712786,7.588000,19.657580

3.174147,0.216883,8.819120,16.632940,0.124893,0.511088,0.630449,7.580000,19.657580

1.174305,-1.145883,8.869416,16.638823,0.047886,0.593691,0.511340,7.576000,19.657580

-0.875831,1.507799,10.584250,16.644705,-0.007272,0.668301,0.369316,7.576000,19.657580

-1.249454,0.152218,9.530441,16.629999,0.091852,0.582233,0.065548,7.572000,19.657580

-3.654054,2.710098,9.120893,16.650587,0.115034,0.470852,-0.446859,7.564000,19.657580

-4.063602,0.695887,8.481422,16.638823,0.019907,0.331759,-0.681879,7.560000,19.657580

-5.457504,3.148387,9.678933,16.656469,-0.006473,0.278466,-0.733040,7.564000,19.657580

-2.973868,2.561607,8.464658,16.638823,-0.069624,0.096206,-0.689873,7.564000,19.657580

-1.474586,3.105277,8.677814,16.659410,-0.003541,0.033854,-0.652568,7.572000,19.657580

-0.883016,3.811807,10.064531,16.659410,-0.026990,-0.034361,-0.465245,7.568000,19.657580

1.310822,4.154295,9.872930,16.641764,0.018841,-0.021837,-0.261135,7.572000,19.657580

2.046093,1.737720,9.221484,16.644705,0.034563,0.001345,0.030109,7.580000,19.657580

0.350419,4.147110,8.922107,16.656469,-0.019263,0.038383,0.244611,7.572000,19.657580

-0.126190,4.199801,8.948452,16.641764,0.061475,0.063697,0.354127,7.576000,19.657580

0.343234,3.373519,8.876601,16.647646,0.137151,0.210785,0.391699,7.572000,19.657580

-1.663793,3.847733,8.481422,16.650587,-0.102399,0.277400,0.328547,7.576000,19.657580

-1.826654,3.124437,9.477751,16.635881,-0.061630,0.260080,0.194516,7.588000,19.657580

-1.127308,3.950719,9.674143,16.647646,-0.074953,0.262478,0.095392,7.580000,19.657580

-1.975145,3.047796,9.839399,16.644705,0.029233,0.260347,0.047695,7.588000,19.657580

-2.727181,2.487362,9.152028,16.644705,-0.060564,0.220644,-0.053294,7.596000,19.657580

-2.516420,2.846615,9.334050,16.650587,-0.040047,0.226772,0.002663,7.596000,19.657580

-3.802545,2.089788,9.817844,16.653528,0.032165,0.215314,0.056489,7.600000,9.738879

-3.603759,2.429881,9.187954,16.659410,0.083858,0.092209,0.036238,7.600000,9.738879

-0.159721,-0.415402,9.719648,16.629999,0.151007,-0.474024,-0.309098,7.588000,9.738879

4.069884,1.416788,8.601173,16.644705,0.048685,-0.339194,0.042633,7.564000,9.738879

-0.427963,2.925650,10.215417,16.627058,0.112103,-0.076995,0.449787,7.564000,9.738879

2.596947,2.882540,8.610754,16.632940,-0.048041,-0.183047,0.476434,7.556000,9.738879

3.602855,4.290812,8.150910,16.644705,0.156070,-0.011978,0.611797,7.564000,9.738879

0.290543,1.675450,9.173584,16.635881,0.040425,0.119122,0.735169,7.560000,9.738879

-2.293683,2.142479,9.647798,16.632940,0.007650,0.233167,0.624320,7.564000,9.738879

-2.892438,2.396351,9.487331,16.624117,0.016710,0.123385,0.519601,7.564000,9.738879

-3.337911,3.735167,8.895761,16.638823,0.097714,0.132711,0.443925,7.568000,9.738879

-3.036139,2.736444,8.155700,16.638823,-0.019263,0.070092,0.323751,7.564000,9.738879

-3.148705,3.797437,9.183164,16.644705,-0.018996,0.036785,0.236617,7.564000,9.738879

-1.879345,4.824901,9.841794,16.641764,-0.059232,-0.018640,0.112979,7.576000,9.738879

-0.214806,4.887171,8.457473,16.638823,0.003653,0.006408,-0.027980,7.576000,9.738879

0.340838,6.020016,8.778405,16.635881,0.028701,0.025060,-0.119110,7.580000,9.738879

0.872533,4.384217,8.536509,16.621176,-0.048307,-0.011445,-0.262200,7.592000,9.738879

0.894088,3.778277,8.593988,16.635881,-0.040047,0.003477,-0.479367,7.596000,9.738879

0.376764,4.501573,10.174702,16.647646,-0.051238,0.030390,-0.566501,7.596000,9.738879

1.449733,4.379427,8.689790,16.627058,0.046287,-0.001320,-0.537989,7.600000,19.542135

1.315612,2.722074,8.347301,16.650587,-0.016865,0.014402,-0.526265,7.600000,19.542135

1.222206,4.001014,8.661049,16.635881,-0.044843,-0.016508,-0.476969,7.608000,19.542135

3.346588,3.689661,9.731624,16.650587,-0.081881,-0.001586,-0.406623,7.604000,19.542135

4.115389,1.486243,8.682605,16.638823,-0.005940,0.200393,-0.324286,7.604000,19.542135

2.345470,0.430040,9.585527,16.644705,-0.129578,0.254751,-0.250476,7.600000,19.542135

1.643729,2.077813,10.979428,16.653528,-0.248687,0.325896,-0.302170,7.604000,19.542135

1.959872,2.075418,11.060859,16.653528,-0.040580,0.405569,-0.350932,7.600000,19.542135

1.919157,-1.507531,9.554392,16.671175,-0.016598,0.241428,-0.365854,7.600000,19.542135

-2.025441,-1.234499,9.930409,16.644705,-0.085612,0.390114,-0.369851,7.592000,19.542135

-2.830167,-0.525573,10.476475,16.647646,-0.055768,0.293921,-0.517471,7.588000,19.542135

-2.068551,-0.013039,9.480146,16.647646,0.051350,0.117789,-0.762883,7.584000,19.542135

-0.962052,0.830008,8.833491,16.647646,0.029233,0.091143,-0.720516,7.588000,19.542135

-2.037416,1.081485,8.950847,16.650587,-0.005673,0.016800,-0.646972,7.576000,19.542135

-0.674650,1.847891,10.936318,16.671175,0.013246,-0.020505,-0.691471,7.572000,19.542135

-0.660280,4.099210,8.792775,16.659410,0.134753,-0.030364,-0.625122,7.576000,19.542135

-1.160839,2.312525,7.715016,16.653528,0.093451,-0.118829,-0.523334,7.580000,19.542135

-1.033903,3.562725,10.581855,16.650587,0.077463,-0.120162,-0.395698,7.580000,19.542135

-1.965565,3.905213,8.481422,16.650587,0.070535,-0.131886,-0.204112,7.588000,19.542135

-1.306935,3.893238,8.878996,16.644705,0.063341,-0.193972,0.070878,7.584000,19.542135

-1.716483,4.460858,9.848979,16.644705,0.041491,-0.117231,0.141490,7.592000,19.542135

-2.645751,2.554422,9.077783,16.653528,0.034030,-0.093249,0.191585,7.588000,19.542135

-2.255363,3.991434,8.570039,16.647646,0.071867,-0.048483,0.211570,7.592000,19.542135

-0.878226,4.125555,9.075388,16.638823,-0.033119,-0.019173,0.292308,7.600000,19.542135

-1.460216,4.288416,8.902946,16.632940,0.046820,0.014402,0.352262,7.600000,19.542135

-1.536857,4.542289,9.925620,16.644705,-0.015799,0.020530,0.333876,7.608000,19.542135

-1.132098,3.811807,8.035949,16.647646,0.145411,0.007740,0.347999,7.612000,20.213109

-2.231412,3.227422,8.512558,16.644705,0.032697,-0.051681,0.317888,7.616000,20.213109

-3.560648,2.930440,9.743598,16.644705,-0.068025,-0.031696,0.298970,7.612000,20.213109

-3.196605,2.281390,9.477751,16.638823,-0.008871,-0.044753,0.210771,7.616000,20.213109

-3.910321,0.597691,9.724438,16.635881,0.034563,-0.100444,0.061818,7.616000,20.213109

-5.378468,1.124595,10.787827,16.641764,-0.004074,-0.101509,-0.019187,7.616000,20.213109

-4.825219,3.117252,9.992681,16.638823,0.151540,-0.231277,-0.115646,7.616000,20.213109

-4.537817,-0.611794,8.651469,16.629999,0.189644,-0.487880,-0.229958,7.616000,20.213109

-1.132098,-0.396242,9.923224,16.638823,0.242936,-0.533712,-0.218234,7.616000,20.213109

0.359999,0.259993,9.171188,16.618235,0.129157,-0.579277,-0.098060,7.608000,20.213109

2.798129,-2.820002,10.500424,16.638823,-0.056567,-0.453506,-0.047432,7.604000,20.213109

1.466498,0.971314,10.301638,16.632940,0.181916,-0.252594,-0.050896,7.596000,20.213109

2.793339,1.797596,8.131750,16.659410,-0.023793,-0.260321,0.010391,7.596000,20.213109

0.194742,-0.659694,10.201047,16.632940,0.094517,-0.142545,0.037570,7.588000,20.213109

-0.545319,2.781949,8.795171,16.632940,0.190177,-0.303488,0.005594,7.588000,20.213109

1.224601,1.043165,8.076665,16.638823,0.058011,-0.265650,-0.018387,7.576000,20.213109

0.688116,4.523129,9.178373,16.635881,0.058278,-0.218486,0.102320,7.580000,20.213109

0.697697,2.178404,9.001143,16.629999,0.006051,-0.211292,0.225159,7.580000,20.213109

-0.756080,2.360425,8.483818,16.629999,0.080661,-0.275509,0.397294,7.580000,20.213109

0.070201,2.358031,8.958032,16.638823,-0.040580,-0.236073,0.390899,7.580000,20.213109

-1.175209,4.082445,10.498030,16.650587,-0.017930,-0.129754,0.376777,7.584000,20.213109

-0.605194,4.743470,8.696975,16.653528,0.143279,-0.167326,0.395962,7.580000,20.213109

-1.591942,4.554264,7.786867,16.627058,0.070269,-0.127090,0.344535,7.588000,20.213109

-1.500932,3.677686,8.941267,16.644705,-0.088276,-0.192906,0.339738,7.592000,20.213109

-1.285380,4.697965,9.346025,16.638823,-0.023526,-0.178784,0.428470,7.600000,20.213109

-1.294960,5.085958,9.487331,16.644705,0.024704,-0.125758,0.457248,7.600000,20.213109

-0.171696,4.048914,8.744875,16.641764,0.068137,-0.038358,0.535322,7.608000,20.213109

0.307308,2.118529,8.313771,16.638823,-0.044843,-0.020771,0.544115,7.608000,20.213109

0.441429,3.433394,8.167675,16.621176,-0.139437,-0.050882,0.521466,7.612000,20.213109

1.090480,3.354359,9.492122,16.635881,-0.102399,0.066095,0.349064,7.620000,20.213109

1.104850,2.128109,9.841794,16.647646,0.021506,0.160690,0.219830,7.620000,20.213109

0.992284,2.633458,9.487331,16.647646,-0.081348,0.239829,0.081003,7.624000,20.213109

1.883231,3.155572,9.755573,16.641764,-0.178341,0.249688,0.004529,7.620000,20.213109

2.343075,4.041729,9.228669,16.638823,0.054547,0.389847,0.055689,7.620000,20.213109

1.928736,-0.602214,8.869416,16.656469,-0.058966,0.359737,0.006394,7.620000,20.213109

1.670074,-0.700409,9.482541,16.650587,-0.230567,0.342151,-0.069015,7.620000,20.213109

1.143170,1.728140,10.301638,16.650587,0.053215,0.456996,-0.105254,7.616000,20.213109

2.252064,0.339029,8.356882,16.650587,0.025237,0.383452,-0.123906,7.616000,20.213109

-0.780031,0.449200,9.973520,16.653528,0.003920,0.326429,0.077539,7.612000,20.213109

-0.298632,0.032467,10.114826,16.647646,0.039093,0.244359,0.103386,7.596000,20.213109

-2.339188,-0.791420,8.546088,16.635881,-0.001410,0.324564,-0.015989,7.600000,20.213109

-2.523605,1.752090,10.555510,16.653528,-0.009404,0.145501,-0.084470,7.596000,20.213109

-0.260311,2.403536,9.178373,16.650587,0.132887,0.226506,-0.122574,7.592000,20.213109

-1.376390,2.403536,9.798684,16.656469,-0.033918,0.152696,-0.305900,7.596000,20.213109

-1.062643,3.646551,7.889853,16.659410,0.009782,0.069027,-0.303236,7.592000,20.213109

0.498910,4.535103,7.015671,16.659410,0.013512,-0.016508,-0.184127,7.596000,20.213109

1.969452,2.597533,9.393926,16.662352,-0.107728,0.019198,-0.057557,7.600000,20.213109

1.861676,2.025123,9.425060,16.665293,-0.000077,0.066095,0.099656,7.592000,20.213109

0.839003,3.342384,8.603569,16.650587,-0.033918,0.135909,0.367450,7.600000,20.213109

-0.152535,3.610626,8.562854,16.659410,-0.127447,0.188935,0.458048,7.596000,20.213109

-0.727340,4.319552,10.203442,16.653528,-0.028589,0.288059,0.428470,7.604000,20.213109

-0.928522,4.532709,9.195139,16.662352,-0.073621,0.329893,0.378908,7.604000,20.213109

-1.505722,3.545960,8.366462,16.653528,0.008716,0.277134,0.399426,7.600000,20.213109

-2.382299,3.031031,8.847861,16.653528,-0.042978,0.313906,0.307496,7.612000,10.078555

-2.602640,5.126673,8.653864,16.641764,-0.108261,0.347746,0.260599,7.612000,10.078555

-1.345255,3.591465,9.817844,16.656469,-0.171679,0.258481,0.185723,7.612000,10.078555

-1.476981,4.398587,9.820239,16.671175,-0.038448,0.340552,-0.036773,7.624000,10.078555

-1.395551,2.899305,9.623847,16.668234,0.069469,0.215314,-0.103922,7.624000,10.078555

-3.060089,1.538934,9.628637,16.644705,0.091319,0.167351,-0.181462,7.624000,10.078555

-3.713929,0.341424,8.979588,16.641764,-0.005940,0.033054,-0.296041,7.624000,10.078555

-4.389325,2.142479,10.368698,16.629999,-0.081348,0.017333,-0.435667,7.632000,10.078555

-3.280431,-0.202245,10.057346,16.647646,-0.041113,-0.106839,-0.373582,7.624000,10.078555

-0.581244,0.331844,9.841794,16.662352,0.067871,-0.193972,-0.329882,7.620000,10.078555

-1.498536,0.406090,9.954360,16.659410,0.077463,-0.228878,-0.289646,7.616000,10.078555

1.715580,1.143756,10.723162,16.662352,-0.041379,-0.373834,-0.209174,7.612000,10.078555

2.932250,0.219278,9.932805,16.647646,0.040691,-0.115099,-0.095661,7.612000,10.078555

4.503383,1.934112,9.190349,16.647646,0.089454,0.004809,-0.022651,7.600000,10.078555

0.204322,1.208421,9.168794,16.650587,0.195506,0.015734,-0.046899,7.604000,10.078555

-1.797914,1.704190,9.262199,16.659410,0.101445,0.094341,-0.354396,7.596000,10.078555

-1.431476,1.833521,8.914922,16.659410,0.052682,-0.049016,-0.540121,7.604000,10.078555

-0.138165,3.943534,7.906618,16.653528,-0.027523,-0.015708,-0.671753,7.604000,10.078555

-1.364415,3.122042,9.235854,16.659410,-0.033918,0.042380,-0.781802,7.596000,10.078555

-2.197882,3.181917,9.219090,16.653528,0.046554,-0.075663,-0.748228,7.604000,10.078555

-1.654213,3.905213,8.567643,16.659410,0.125693,-0.192640,-0.622724,7.608000,10.078555

-1.560807,2.990316,8.785590,16.671175,0.051883,-0.178517,-0.515073,7.604000,10.078555

-1.548832,4.307577,9.858560,16.659410,-0.001943,-0.185712,-0.494556,7.608000,10.078555

-1.199159,3.586675,9.063413,16.656469,0.020174,-0.254192,-0.498286,7.612000,10.078555

-0.631539,4.800951,8.119775,16.677057,0.160866,-0.283237,-0.498020,7.616000,10.078555

-1.009952,5.002132,8.452682,16.647646,0.155803,-0.309350,-0.405024,7.620000,20.408377

-0.988397,3.778277,7.976073,16.665293,0.102511,-0.406875,-0.261401,7.624000,20.408377

-0.885411,3.299273,8.603569,16.677057,0.012446,-0.409806,-0.041569,7.632000,20.408377

-0.456703,4.180641,9.096943,16.677057,0.236275,-0.431656,0.229689,7.632000,20.408377

-0.514183,3.725587,7.281518,16.659410,0.217090,-0.511595,0.368783,7.632000,20.408377

0.132472,1.706585,8.208390,16.656469,-0.068025,-0.404744,0.426072,7.636000,20.408377

2.175424,3.306458,9.748388,16.653528,-0.073088,-0.233941,0.465775,7.640000,20.408377

3.408859,3.272928,10.790222,16.674116,0.004452,-0.111635,0.414881,7.636000,20.408377

3.320243,1.514984,10.174702,16.665293,0.082526,-0.027433,0.354127,7.632000,20.408377

2.905905,0.485125,9.571157,16.662352,-0.042445,0.054904,0.387435,7.636000,20.408377

2.285594,0.765343,10.627360,16.659410,-0.096270,0.225174,0.235285,7.628000,20.408377

1.909576,-0.774655,9.556787,16.653528,-0.073621,0.262745,0.190786,7.628000,20.408377

1.040184,-2.269147,8.570039,16.665293,-0.026724,0.343749,0.215567,7.616000,20.408377

-3.469637,-1.462026,11.539863,16.671175,-0.045110,0.292322,0.262731,7.616000,20.408377

-4.283944,0.916229,9.460986,16.662352,0.151540,0.369330,0.160676,7.608000,20.408377

-3.335516,-1.282399,10.193862,16.644705,-0.167416,0.162821,0.023447,7.608000,20.408377

-3.522328,1.464688,8.143725,16.653528,0.110238,0.271805,0.019184,7.612000,20.408377

-2.183512,2.822664,8.253896,16.644705,0.004452,0.094607,-0.038105,7.604000,20.408377

-0.997977,2.152059,10.002260,16.671175,-0.041379,0.121786,-0.118044,7.604000,20.408377

-0.897387,2.726864,9.896879,16.662352,-0.089609,0.047443,-0.312562,7.600000,20.408377

-0.049550,5.155414,8.253896,16.662352,-0.046175,0.048775,-0.454586,7.600000,20.408377

-0.715365,4.738680,9.446616,16.638823,0.080128,0.050108,-0.539321,7.604000,20.408377

-0.193251,3.409444,8.869416,16.659410,-0.019263,-0.036493,-0.611799,7.612000,20.408377

0.139657,4.662040,8.811935,16.644705,0.003653,-0.041822,-0.568899,7.620000,20.408377

0.261803,3.569910,9.233459,16.659410,0.140082,-0.064738,-0.450323,7.620000,20.408377

-1.326095,4.513548,8.653864,16.647646,-0.009937,-0.038624,0.206241,7.620000,20.650576

-0.224386,3.648946,9.401111,16.653528,-0.017930,-0.017840,0.429803,7.628000,20.650576

-0.200436,2.662198,8.246711,16.665293,-0.016865,0.049308,0.578222,7.632000,20.650576

-1.553622,3.857313,8.167675,16.650587,-0.101333,0.050641,0.585150,7.632000,20.650576

-2.858907,4.468043,10.105247,16.656469,-0.133842,0.165220,0.540651,7.636000,20.650576

-3.996542,1.488638,10.871653,16.668234,-0.164751,0.076754,0.436731,7.636000,20.650576

-3.481613,3.102882,10.299243,16.653528,0.018308,0.162288,0.359190,7.640000,20.650576

-4.051627,1.766461,9.451406,16.650587,0.038293,0.132178,0.293640,7.640000,20.650576

-4.494706,0.710257,9.367580,16.632940,-0.009404,-0.012511,0.246476,7.644000,20.650576

-4.159403,0.588111,9.935200,16.638823,-0.070157,-0.063938,0.197181,7.644000,20.650576

-1.874555,0.255203,9.355605,16.644705,-0.003275,-0.138015,0.200378,7.636000,20.650576

-0.792006,-1.093193,10.047766,16.665293,-0.042711,-0.096180,0.176397,7.624000,20.650576

0.362394,0.944969,11.075230,16.638823,-0.072289,-0.138015,0.074075,7.624000,20.650576

3.885468,0.401300,9.001143,16.650587,0.088122,-0.122826,0.072210,7.624000,20.650576

4.421952,-0.487253,9.690907,16.644705,-0.106396,0.020530,-0.001334,7.612000,20.650576

2.481986,0.609666,9.233459,16.627058,0.139815,0.286726,-0.013591,7.612000,20.650576

-1.659003,1.723350,8.105405,16.653528,-0.017397,0.395443,-0.206776,7.612000,20.650576

-3.814520,0.647987,10.160332,16.656469,-0.096004,0.082350,-0.700265,7.604000,20.650576

-1.357230,1.982013,9.815449,16.638823,-0.009404,0.069027,-1.281686,7.604000,20.650576

-0.643515,2.712493,8.890971,16.638823,-0.015532,0.038916,-1.611300,7.600000,20.650576

-1.596732,4.017779,8.629914,16.638823,0.003387,-0.065537,-1.610501,7.604000,20.650576

-2.262548,3.246583,9.161609,16.641764,0.063341,-0.304554,-1.439432,7.608000,20.650576

-1.261430,4.072865,9.585527,16.641764,0.090786,-0.434321,-1.113015,7.612000,20.650576

-0.645909,3.943534,9.640613,16.635881,0.149408,-0.456970,-0.689606,7.608000,20.650576

-1.086593,2.875355,8.225156,16.632940,0.147543,-0.454306,-0.320556,7.620000,20.650576

-1.230294,3.538775,8.294611,16.632940,0.056946,-0.489745,0.057555,7.616000,20.462541

-0.483048,4.659645,8.603569,16.629999,0.093984,-0.428725,0.287778,7.620000,20.462541

-1.448241,4.396193,9.681328,16.641764,0.111304,-0.363176,0.368516,7.624000,20.462541

-1.021928,3.095696,8.998747,16.632940,0.176587,-0.373568,0.410617,7.628000,20.462541

-1.503326,3.263348,7.042016,16.638823,0.107307,-0.433522,0.496418,7.632000,20.462541

-2.027836,2.734049,9.326865,16.629999,-0.172212,-0.346921,0.608333,7.636000,20.462541

-0.528554,4.743470,10.478869,16.632940,0.026835,-0.230477,0.627251,7.640000,20.462541

-0.044760,2.844219,9.532837,16.629999,0.161132,-0.298159,0.637377,7.636000,20.462541

0.975519,1.428763,9.760364,16.629999,0.028701,-0.353849,0.557438,7.644000,20.462541

2.393370,2.928045,9.793894,16.618235,-0.032852,-0.234474,0.604069,7.644000,20.462541

1.667679,0.932994,10.845307,16.627058,-0.163952,0.080484,0.609665,7.640000,20.462541

1.380277,2.604717,10.780642,16.635881,0.004186,0.149232,0.601404,7.636000,20.462541

1.698815,-0.379477,10.304033,16.621176,0.058011,0.109529,0.578489,7.632000,20.462541

0.268988,0.073182,12.548166,16.615294,-0.141303,0.163887,0.507610,7.640000,20.462541

0.855768,0.645592,10.148356,16.627058,0.075331,0.268340,0.418611,7.636000,20.462541

-0.071105,0.092342,7.674301,16.624117,-0.018730,0.315504,0.346933,7.628000,20.462541

-2.207462,1.268297,7.336603,16.644705,0.050550,0.257416,0.354127,7.624000,20.462541

-1.900900,1.457503,11.760204,16.627058,-0.080283,0.050374,0.128167,7.616000,20.462541

1.104850,1.287457,11.532678,16.624117,0.063607,-0.010379,0.122571,7.616000,20.462541

3.365748,1.414393,7.746151,16.624117,0.061475,0.128448,0.161475,7.620000,20.462541

0.091757,2.350845,8.191626,16.606470,0.001788,0.209452,0.239548,7.612000,20.462541

-0.075895,1.864656,9.805869,16.624117,-0.062696,0.289125,0.166804,7.612000,20.462541

1.009049,2.710098,8.749665,16.615294,-0.065894,0.200925,-0.000001,7.620000,20.462541

1.610199,4.223751,9.223879,16.629999,-0.041379,0.322432,-0.007462,7.620000,20.462541

0.491725,4.199801,8.838281,16.624117,0.040691,0.316570,-0.069015,7.620000,20.617309

0.137262,3.701637,8.023974,16.624117,0.006318,0.332558,-0.194785,7.620000,20.617309

-0.032785,3.397469,8.524533,16.612352,-0.073621,0.346414,-0.180396,7.620000,20.617309

0.137262,3.277718,9.554392,16.632940,-0.167682,0.327229,-0.109251,7.632000,20.617309

-1.788334,3.821388,10.754296,16.600588,-0.082414,0.471385,-0.206776,7.632000,20.617309

-1.436266,3.555540,8.531718,16.606470,0.128624,0.427685,-0.176133,7.636000,20.617309

0.415084,5.200919,9.851375,16.621176,0.215224,0.300849,-0.177199,7.640000,20.617309

-0.997977,3.371124,7.796447,16.629999,0.047886,0.189468,-0.208908,7.640000,20.617309

-3.093619,2.815479,9.329260,16.624117,-0.093606,0.164687,-0.288047,7.640000,20.617309

-3.735485,2.125714,10.361513,16.615294,-0.058699,0.107397,-0.350932,7.640000,20.617309

-3.852841,3.086117,9.568762,16.615294,0.110771,0.059434,-0.404225,7.640000,20.617309

-3.929481,0.355794,9.221484,16.624117,0.073466,-0.155868,-0.337076,7.652000,20.617309

-4.082763,-0.422587,9.484936,16.609411,-0.045643,-0.250995,-0.227560,7.644000,20.617309

-3.883976,0.168983,10.874047,16.629999,0.088921,-0.319209,-0.099658,7.644000,20.617309

-2.190697,-1.914684,9.626243,16.624117,0.033497,-0.423130,-0.001600,7.636000,20.617309

-1.476981,0.149823,10.282477,16.624117,0.062008,-0.401546,0.057821,7.632000,20.617309

3.792062,-1.074032,10.989009,16.606470,0.049485,-0.462300,0.034639,7.624000,20.617309

3.787271,1.582044,8.804750,16.627058,0.086523,-0.282704,0.170801,7.616000,20.617309

3.679496,1.694610,9.221484,16.638823,0.081727,-0.128955,0.269392,7.616000,20.617309

2.110758,-0.365107,9.518467,16.621176,0.027102,-0.124692,0.346666,7.612000,20.617309

-1.723668,2.987921,10.177097,16.635881,0.125160,0.070092,0.241414,7.608000,20.617309

-1.282985,2.492151,9.362790,16.624117,-0.049906,-0.077528,0.079404,7.608000,20.617309

-0.780031,2.343660,8.177256,16.638823,0.085990,-0.130820,0.049294,7.604000,20.617309

-0.516578,3.634576,8.325747,16.653528,0.007117,-0.108437,0.060486,7.608000,20.617309

-0.626749,3.524405,9.860954,16.644705,-0.052571,-0.105506,0.035705,7.608000,20.617309

-1.706903,4.214171,9.501701,16.632940,0.099047,-0.069800,-0.027447,7.612000,20.617309

-0.317792,4.508758,8.716135,16.624117,0.101711,-0.107905,0.048761,7.616000,20.617309

0.446219,3.890843,8.584409,16.638823,-0.058166,-0.131087,0.154014,7.620000,20.073930

-0.899782,3.818992,8.689790,16.627058,0.025503,-0.061540,0.140158,7.616000,20.073930

-1.407526,3.126832,9.674143,16.641764,0.024171,-0.107638,0.063683,7.624000,20.073930

-1.182394,4.894356,9.865745,16.644705,-0.015266,-0.001586,-0.050896,7.628000,20.073930

-0.593219,3.222633,8.110195,16.656469,-0.128246,-0.116165,-0.183061,7.632000,20.073930

-0.346532,3.589071,9.628637,16.635881,-0.180473,-0.094048,-0.030645,7.640000,20.073930

-0.171696,4.913517,10.122011,16.650587,-0.017397,-0.038091,0.071411,7.644000,20.073930

1.310822,3.857313,8.740085,16.627058,0.082792,-0.021837,0.034905,7.644000,20.073930

1.368302,2.331685,8.598779,16.635881,-0.078684,-0.013843,0.015986,7.648000,20.073930

2.886744,3.162757,9.417875,16.641764,-0.079483,0.095673,-0.148954,7.644000,20.073930

3.217257,3.454949,10.311218,16.641764,-0.128779,0.168684,-0.177998,7.648000,20.073930

3.607645,2.092183,9.860954,16.641764,-0.038182,0.218512,-0.106320,7.652000,20.073930

1.107245,0.398905,9.676538,16.662352,-0.051238,0.326429,-0.119377,7.644000,20.073930

0.439034,1.799991,10.447734,16.656469,-0.102133,0.332558,-0.188124,7.648000,20.073930

-0.564479,0.123477,10.179492,16.679998,-0.094139,0.340019,-0.227560,7.644000,20.073930

0.494120,-1.153068,8.938871,16.659410,0.078263,0.305379,-0.268596,7.640000,20.073930

-3.402577,-0.084889,10.347143,16.659410,-0.071756,0.156160,-0.282185,7.632000,20.073930

-3.972592,-0.841716,10.162726,16.653528,0.141947,0.096206,-0.275790,7.636000,20.073930

-2.638566,1.067115,8.091035,16.668234,0.054814,-0.068202,-0.168939,7.632000,20.073930

1.682050,0.647987,9.372371,16.662352,0.034829,-0.116964,0.052758,7.624000,20.073930

0.939593,1.855076,9.647798,16.665293,0.044688,0.050374,0.261398,7.628000,20.073930

-0.233966,3.739957,9.106524,16.644705,0.070802,0.108729,0.276054,7.624000,20.073930

-1.194369,4.580609,8.186835,16.650587,0.079062,0.153229,0.108715,7.628000,20.073930

0.956359,2.746024,8.560458,16.650587,0.081727,0.122852,-0.075677,7.624000,20.073930

0.036671,2.195169,9.281360,16.671175,-0.096803,0.209719,-0.144424,7.628000,20.795714

-0.827931,4.096815,9.104128,16.659410,-0.084013,0.251287,-0.212372,7.620000,20.795714

0.271383,3.265743,8.754455,16.659410,-0.040047,0.171615,-0.191055,7.624000,20.795714

-0.447123,4.314762,10.433364,16.662352,-0.030721,0.218246,-0.054093,7.636000,20.795714

-0.904572,5.574542,8.117380,16.671175,0.110238,0.257149,0.102587,7.632000,20.795714

-0.928522,5.150623,9.633428,16.662352,-0.034718,0.275269,0.391699,7.644000,20.795714

-0.518973,4.216566,9.144843,16.647646,0.080128,0.242227,0.358924,7.648000,20.795714

-0.157326,2.671778,9.111313,16.656469,-0.122384,0.215847,0.250473,7.648000,20.795714

-1.151259,4.180641,9.353210,16.671175,-0.036316,0.352010,0.122838,7.652000,20.795714

-1.472191,4.994947,9.149633,16.665293,0.030566,0.291789,-0.079407,7.652000,20.795714

-3.701954,1.833521,9.769943,16.647646,-0.127713,0.244892,-0.293643,7.652000,20.795714

-3.927086,-0.075309,9.238249,16.644705,-0.157024,0.160423,-0.496154,7.656000,20.795714

-3.309171,1.900582,9.379556,16.644705,0.092652,0.090876,-0.614997,7.656000,20.795714

-3.464847,0.262388,10.265713,16.644705,-0.005673,-0.002918,-0.729842,7.656000,20.795714

-3.788175,0.997660,11.166240,16.659410,-0.024858,-0.089785,-0.801787,7.652000,20.795714

-0.518973,-1.416520,9.822634,16.638823,-0.046175,-0.265650,-0.820439,7.656000,20.795714

0.106127,0.923414,8.960427,16.653528,0.166195,-0.164395,-0.751159,7.652000,20.795714

0.970729,-0.798605,10.210628,16.665293,0.020174,-0.288833,-0.734372,7.644000,20.795714

-0.356112,-1.876364,11.513517,16.641764,0.027901,-0.167592,-0.853214,7.636000,20.795714

1.749110,0.037257,9.654983,16.632940,0.161132,-0.112168,-0.975520,7.628000,20.795714

-0.260311,0.588111,8.960427,16.647646,0.072400,-0.100710,-0.996571,7.620000,20.795714

-0.964447,1.342542,8.277846,16.632940,0.104109,-0.197702,-1.096761,7.616000,20.795714

-1.294960,-0.317206,8.996352,16.647646,0.090520,-0.285102,-1.065851,7.616000,20.795714

-1.603917,2.743629,9.164003,16.644705,0.103310,-0.350652,-1.002167,7.612000,20.795714

-1.019533,3.294483,10.826147,16.627058,0.259990,-0.360511,-0.797257,7.612000,20.795714

-2.734366,3.193892,9.702883,16.635881,0.161132,-0.403678,-0.540654,7.616000,20.655891

-3.007399,2.420301,7.952123,16.650587,0.167794,-0.492676,-0.367986,7.616000,20.655891

-2.710416,2.269415,9.096943,16.641764,0.185647,-0.569684,-0.118844,7.624000,20.655891

-2.664911,5.497901,10.208232,16.632940,0.209629,-0.516924,0.206241,7.624000,20.655891

-1.093778,5.957745,7.671906,16.627058,0.390290,-0.506532,0.483895,7.628000,20.655891

-2.894833,3.490875,7.798842,16.627058,-0.028589,-0.580609,0.677346,7.632000,20.655891

-1.026718,5.229659,9.135263,16.635881,0.094517,-0.390888,0.735968,7.640000,20.655891

0.144447,5.325460,8.043135,16.627058,0.148076,-0.399947,0.645371,7.640000,20.655891

-0.827931,4.990157,7.904223,16.612352,0.073466,-0.497739,0.437530,7.640000,20.655891

-0.346532,4.123160,8.936477,16.629999,0.083858,-0.460967,0.245677,7.652000,20.655891

-0.883016,4.422538,10.830937,16.627058,0.117965,-0.273378,0.147885,7.652000,20.655891

0.204322,3.011871,7.916198,16.627058,0.137151,-0.369837,0.267527,7.660000,20.655891

0.642611,2.837034,7.010880,16.629999,-0.048041,-0.357047,0.527594,7.660000,20.655891

1.598224,4.501573,8.970007,16.624117,0.076664,-0.292297,0.739166,7.656000,20.655891

2.127523,2.942415,9.231064,16.624117,0.170192,-0.230477,0.845484,7.656000,20.655891

3.466339,1.797596,8.265871,16.656469,0.067604,-0.080459,0.915031,7.656000,20.655891

1.614989,0.516261,8.934082,16.635881,0.001521,0.078353,0.879058,7.656000,20.655891

0.510885,-0.084889,10.059741,16.627058,-0.200457,0.122852,0.881457,7.652000,20.655891

1.859281,0.439620,11.269226,16.653528,-0.042711,0.193997,0.812443,7.656000,20.655891

1.533558,-0.956676,11.223721,16.662352,0.032431,0.308576,0.694400,7.656000,20.655891

1.018629,-0.915961,10.366303,16.650587,-0.023260,0.285927,0.531325,7.644000,20.655891

-0.229176,1.498219,9.484936,16.653528,-0.022460,0.372794,0.448988,7.632000,20.655891

0.661771,0.259993,9.403505,16.644705,-0.013933,0.366665,0.478565,7.628000,20.655891

-1.170419,1.596414,9.173584,16.641764,-0.034451,0.406635,0.431401,7.628000,20.655891

0.278568,2.834639,8.867022,16.656469,0.022039,0.326962,0.290443,7.624000,20.655891

-0.758475,3.112462,8.510163,16.635881,-0.004341,0.280864,0.251273,7.632000,20.655891

-0.207621,3.342384,9.856164,16.656469,-0.007538,0.275269,0.240081,7.628000,20.655891

-1.455426,3.210657,8.536509,16.653528,-0.038182,0.334956,0.115910,7.628000,20.655891

-1.579967,4.305182,8.637099,16.665293,-0.033918,0.338687,0.034905,7.640000,20.655891

0.647401,5.220079,8.306586,16.644705,0.127025,0.334423,0.032241,7.636000,20.655891

1.270106,2.662198,8.062294,16.677057,-0.065094,0.278200,0.128434,7.648000,20.655891

0.000746,2.875355,8.344907,16.659410,-0.024592,0.343483,0.165738,7.648000,20.655891

0.860558,4.204591,8.440707,16.662352,-0.130111,0.475382,0.155879,7.656000,20.655891

-0.145350,2.441856,8.105405,16.677057,0.012979,0.508423,0.046630,7.656000,20.655891

-0.760870,3.445369,9.961545,16.656469,-0.163685,0.608613,-0.042635,7.660000,20.655891

-1.694928,3.081326,9.635822,16.671175,-0.135174,0.618206,-0.199315,7.660000,20.655891

-1.467401,4.137530,8.644284,16.677057,-0.010469,0.623269,-0.383174,7.660000,20.655891

-2.523605,3.522010,8.570039,16.668234,-0.098402,0.487906,-0.603006,7.668000,20.655891

-2.983449,1.594019,9.947175,16.679998,-0.109594,0.286460,-0.716519,7.668000,20.655891

-5.002450,1.445528,10.110036,16.656469,-0.071756,0.207054,-0.746629,7.672000,20.655891

-3.917506,0.228858,9.338840,16.656469,0.010581,-0.081791,-0.852148,7.668000,20.655891

-4.444410,1.234766,8.634704,16.671175,-0.034984,-0.147075,-0.830565,7.664000,20.655891

-4.248019,-0.501623,10.232183,16.679998,0.062541,-0.328003,-0.824436,7.664000,20.655891

-3.273246,-1.703923,11.257251,16.671175,0.103310,-0.502269,-0.834295,7.664000,20.655891

-2.173932,-0.554313,9.164003,16.662352,0.168060,-0.575546,-0.751692,7.660000,20.655891

2.908299,1.294642,9.504096,16.665293,0.124893,-0.697053,-0.604338,7.656000,20.655891

3.693866,0.216883,10.785432,16.659410,0.058811,-0.556361,-0.287514,7.648000,20.655891

3.892653,2.295760,8.922107,16.662352,0.258391,-0.349586,-0.219566,7.648000,20.655891

2.745438,0.458780,9.082573,16.656469,0.144612,-0.290698,-0.025582,7.644000,20.655891

-1.029113,3.672896,9.846584,16.659410,0.113169,-0.288033,0.174265,7.636000,10.605674

-1.311725,2.525682,9.528047,16.668234,0.081460,-0.321874,0.236884,7.636000,10.605674

-0.792006,2.403536,9.154424,16.659410,0.177387,-0.306419,0.267793,7.644000,10.605674

-0.964447,1.445528,8.838281,16.647646,-0.014733,-0.295228,0.330412,7.644000,10.605674

0.944383,5.529037,9.266990,16.656469,0.000189,-0.173188,0.251806,7.656000,10.605674

1.313216,1.043165,11.159055,16.671175,-0.008071,0.296319,0.003996,7.668000,10.605674

-4.408485,0.494705,9.664562,16.659410,0.044422,0.088478,-0.174534,7.640000,10.605674

0.673746,3.450159,9.068203,16.668234,-0.079217,0.184138,0.346933,7.640000,21.228665

-1.764384,4.774605,8.914922,16.688822,-0.011269,0.244625,0.031441,7.660000,21.228665

-2.815797,3.651341,9.226274,16.677057,-0.058433,0.155893,0.183591,7.660000,21.228665

-2.834957,3.531590,8.373647,16.688822,-0.078950,0.219045,0.224094,7.668000,21.228665

-2.411039,3.912398,10.395043,16.688822,0.066272,0.171348,0.181460,7.672000,21.228665

-3.115175,2.231094,8.890971,16.679998,-0.067492,0.127115,0.285380,7.668000,21.228665

-4.259994,2.434671,9.132869,16.671175,-0.092540,0.099403,0.054091,7.672000,21.228665

-4.882699,1.174891,8.984377,16.674116,-0.002476,-0.042088,-0.153484,7.672000,21.228665

-4.104318,1.064720,10.110036,16.665293,0.075864,-0.122027,-0.285916,7.672000,21.228665

-3.043324,-1.569802,9.235854,16.685881,-0.008871,-0.170790,-0.270194,7.668000,21.228665

-1.639843,-0.872851,9.195139,16.677057,0.000988,-0.205963,-0.256338,7.672000,21.228665

1.056949,-0.686039,9.061018,16.659410,-0.057367,-0.280839,-0.130301,7.660000,21.228665

3.143012,0.001331,11.185400,16.668234,-0.062963,-0.053546,-0.005597,7.660000,21.228665

4.180055,1.467083,10.835728,16.677057,0.131821,-0.035960,-0.006130,7.664000,21.228665

-0.272286,1.150941,8.433522,16.656469,0.043889,0.150298,-0.049030,7.656000,21.439320

-2.406249,0.298314,9.214299,16.668234,0.004985,0.114858,-0.002666,7.652000,21.439320

-4.470756,1.129385,11.848821,16.653528,-0.005140,0.171615,-0.028246,7.644000,21.439320

-1.855394,3.924373,9.369975,16.665293,0.192575,-0.038624,-0.059955,7.644000,21.439320

-0.849486,0.748577,7.310258,16.659410,0.009515,-0.073797,-0.001867,7.640000,21.439320

-2.126032,0.988079,9.046648,16.685881,-0.068025,-0.022104,0.028510,7.648000,21.439320

-2.894833,3.222633,9.542417,16.679998,0.120897,-0.041289,0.003996,7.644000,21.439320

-2.873278,2.080208,8.634704,16.668234,0.003920,-0.142012,-0.217435,7.648000,21.439320

-3.304381,1.574859,9.240644,16.662352,0.038293,-0.128955,-0.413018,7.648000,21.439320

-3.119965,3.632181,9.652588,16.659410,0.046554,-0.144943,-0.568899,7.648000,21.439320

-1.443451,4.161480,8.459867,16.679998,0.049751,-0.254725,-0.736237,7.652000,21.439320

-1.800309,3.986644,9.041858,16.668234,0.056946,-0.279240,-0.626721,7.656000,21.439320

-0.832721,5.277560,9.535232,16.665293,0.072400,-0.355981,-0.455919,7.652000,21.439320

0.343234,4.115975,9.013118,16.656469,0.119298,-0.405810,-0.324819,7.660000,21.439320

-0.080685,3.905213,9.113708,16.665293,0.002854,-0.438584,-0.228093,7.656000,21.439320

0.180372,4.333922,8.435918,16.647646,0.050817,-0.392486,-0.133765,7.664000,21.439320

1.332377,4.453673,9.592712,16.665293,0.000455,-0.400214,-0.026381,7.668000,21.439320

2.280804,2.928045,9.262199,16.665293,-0.045909,-0.337329,0.090862,7.672000,21.439320

2.798129,3.344779,9.336445,16.659410,0.056679,-0.236339,0.155613,7.668000,21.439320

3.315453,1.534144,9.156818,16.656469,-0.047774,-0.177185,0.126302,7.672000,21.439320

2.410136,2.401141,10.038186,16.656469,-0.007805,-0.123892,0.219564,7.664000,21.439320

3.238812,1.586834,11.784155,16.662352,-0.152227,-0.042888,0.361588,7.664000,21.439320

2.108363,0.715047,10.620175,16.653528,0.020440,0.113792,0.454051,7.660000,21.439320

1.562299,0.003726,8.359277,16.668234,0.155803,0.190800,0.438329,7.660000,21.439320

1.571879,0.183353,9.183164,16.677057,-0.122917,0.189734,0.450320,7.660000,21.439320

-1.311725,0.504285,9.815449,16.659410,-0.067226,0.303247,0.492421,7.656000,21.439320

-3.828890,-0.915961,10.586645,16.665293,-0.003808,0.193465,0.465509,7.644000,21.439320

-4.312685,1.617970,10.251343,16.671175,0.094517,0.103134,0.389034,7.640000,21.439320

-1.891320,2.243070,8.301796,16.671175,0.072933,0.046644,0.385836,7.644000,21.439320

0.357604,1.129385,8.694579,16.671175,-0.149296,-0.164927,0.486559,7.636000,21.439320

1.083295,2.683753,8.747270,16.671175,-0.015799,0.097272,0.585150,7.644000,21.439320

-0.159721,5.220079,9.089758,16.679998,0.078795,0.211850,0.657895,7.640000,21.439320

0.367184,3.634576,8.237131,16.665293,-0.058699,0.191333,0.670951,7.644000,21.439320

0.371974,2.676568,8.419152,16.677057,-0.081082,0.269939,0.747426,7.648000,21.439320

1.040184,5.052428,9.324470,16.697645,-0.011002,0.334956,0.749558,7.648000,21.439320

-0.219596,3.462135,9.748388,16.677057,0.013246,0.383452,0.731971,7.648000,21.439320

-0.693810,4.491993,8.641890,16.668234,0.039359,0.452466,0.592345,7.652000,21.439320

-0.799191,3.876473,7.894643,16.668234,-0.052304,0.485774,0.425273,7.664000,21.439320

-0.384852,3.557935,7.889853,16.679998,-0.157290,0.520947,0.325882,7.660000,21.439320

-1.244664,3.538775,9.477751,16.656469,-0.019796,0.590494,-0.024782,7.672000,21.439320

-1.965565,4.247701,9.518467,16.674116,0.017243,0.550258,-0.371716,7.672000,21.439320

-2.897228,2.983131,8.057505,16.679998,-0.055502,0.491903,-0.524133,7.672000,21.439320

-3.266061,2.647828,9.918435,16.674116,-0.050972,0.393045,-0.660828,7.672000,21.439320

-4.209699,1.519774,10.304033,16.674116,-0.093073,0.283795,-0.854280,7.680000,21.439320

-4.789293,0.921019,9.791499,16.668234,0.004719,0.159890,-0.942213,7.676000,21.439320

-3.632499,1.024005,10.457314,16.662352,-0.090408,-0.064205,-0.944611,7.676000,21.439320

-2.219437,0.008516,11.556628,16.671175,0.122495,-0.213690,-0.772743,7.676000,21.439320

-1.963170,-1.555431,9.834609,16.665293,0.153405,-0.314679,-0.754357,7.672000,21.439320

-3.757040,-0.748310,9.834609,16.656469,0.107573,-0.364241,-0.573962,7.672000,21.439320

-0.198041,-0.128000,10.248947,16.653528,-0.049906,-0.540640,-0.397563,7.664000,10.579446

2.582577,0.305499,10.395043,16.650587,0.176321,-0.388490,-0.153484,7.664000,10.579446

2.115548,1.232371,9.147239,16.615294,0.230946,-0.312015,-0.120975,7.656000,10.579446

-0.590824,1.687425,8.663445,16.632940,-0.031520,-0.069800,0.059686,7.652000,10.579446

-2.140402,1.622760,9.434641,16.629999,0.010048,-0.110836,0.059686,7.652000,10.579446

-1.211134,2.360425,9.298124,16.612352,0.210428,-0.215822,-0.008795,7.652000,10.579446

-0.962052,2.724468,9.154424,16.635881,0.089987,-0.204630,-0.055159,7.660000,10.579446

-1.381181,1.685030,8.895761,16.624117,0.059610,-0.183313,0.060752,7.660000,10.579446

-1.905690,2.616693,9.046648,16.638823,0.078529,-0.174787,0.087398,7.652000,10.579446

-1.273405,2.930440,9.106524,16.624117,0.066272,-0.228079,0.019983,7.652000,10.579446

-1.024323,3.201077,9.305309,16.621176,0.156869,-0.224882,0.014921,7.652000,10.579446

-1.158444,3.237003,8.095824,16.624117,0.127025,-0.246199,0.042100,7.652000,10.579446

-2.061366,2.262230,8.344907,16.621176,-0.060564,-0.188909,0.037836,7.656000,10.579446

-1.876950,5.806859,8.929292,16.615294,0.095583,-0.172122,0.111646,7.660000,10.579446

0.259408,5.047637,8.955637,16.609411,0.017243,-0.290698,0.112446,7.664000,10.579446

-0.408803,4.161480,9.061018,16.612352,0.076131,-0.266716,0.078872,7.668000,10.579446

-1.855394,3.404654,10.028605,16.615294,0.025237,-0.239271,0.134296,7.680000,10.579446

-1.053063,3.275323,7.224037,16.615294,-0.011002,-0.185978,0.048228,7.668000,10.579446

-0.351322,4.372242,10.378279,16.600588,-0.037649,-0.145209,-0.063686,7.672000,10.579446

1.545533,2.180799,10.735136,16.627058,-0.052304,-0.188376,-0.124706,7.676000,10.579446

2.563417,3.953113,9.551997,16.618235,-0.016065,-0.104973,-0.123906,7.680000,10.579446

3.420834,1.764066,9.408296,16.609411,-0.056567,0.002144,0.085267,7.676000,10.579446

4.031564,-0.374687,9.944780,16.618235,-0.153826,0.057569,0.262731,7.680000,10.579446

2.474801,3.438184,10.181887,16.603529,0.050284,0.249422,0.261665,7.676000,10.579446

2.771783,2.427486,10.045371,16.612352,-0.159156,0.248089,0.205175,7.668000,10.579446

1.028209,-2.695461,8.941267,16.603529,-0.047241,0.193465,0.248875,7.664000,21.353302

-1.771569,-0.211825,11.147079,16.612352,0.099846,0.207854,0.364253,7.668000,21.353302

-1.618287,0.796478,9.554392,16.609411,0.049485,0.188135,0.292042,7.660000,21.353302

-4.578532,-1.775773,8.950847,16.621176,-0.084280,0.182007,0.204642,7.652000,21.353302

1.394647,2.211934,8.507768,16.627058,0.096648,0.166552,0.473769,7.656000,21.353302

1.107245,2.935230,9.147239,16.609411,-0.063762,0.305912,0.572627,7.656000,21.353302

1.186280,2.199959,8.100615,16.624117,0.047619,0.271005,0.466042,7.660000,21.353302

1.121615,3.917188,8.148515,16.618235,-0.043511,0.373593,0.461245,7.656000,21.353302

0.431849,3.184312,9.465776,16.603529,-0.079217,0.451933,0.282182,7.648000,21.353302

0.086966,4.166270,10.148356,16.618235,-0.009404,0.527076,-0.012259,7.660000,21.353302

-0.885411,3.375914,8.479028,16.618235,0.011380,0.470319,-0.223563,7.652000,21.353302

-1.776359,2.968760,7.683881,16.612352,-0.142901,0.411697,-0.398096,7.660000,21.353302

-1.278195,4.223751,8.754455,16.621176,-0.087211,0.460726,-0.723713,7.664000,21.353302

-1.314120,4.209381,9.757969,16.606470,-0.089342,0.312573,-0.676283,7.668000,21.353302

-2.516420,3.383099,9.434641,16.618235,-0.030987,0.279265,-0.662161,7.672000,21.353302

-2.973868,2.925650,9.013118,16.612352,-0.092806,0.212383,-0.657098,7.672000,21.353302

-3.678004,3.605836,8.833491,16.606470,-0.046708,0.147367,-0.518537,7.680000,21.353302

-2.458939,2.810689,8.433522,16.600588,-0.086944,0.136708,-0.406890,7.680000,21.353302

-2.964288,2.607113,9.724438,16.600588,0.017243,0.041048,-0.218234,7.684000,21.353302

-3.982172,1.898187,9.939990,16.597647,-0.040580,0.007474,-0.139095,7.680000,21.353302

-3.728300,2.736444,10.462104,16.600588,0.093184,-0.111635,-0.111383,7.684000,21.353302

-2.813402,1.447923,9.472961,16.600588,0.182183,-0.305620,-0.256338,7.688000,21.353302

-3.067274,-1.148278,9.460986,16.609411,-0.046975,-0.412471,-0.278455,7.688000,21.353302

-2.264943,0.738997,10.404624,16.588821,-0.057633,-0.329868,-0.262733,7.680000,21.557913

-0.744105,-0.192665,9.834609,16.594706,0.218422,-0.426594,-0.290712,7.680000,21.557913

2.036512,-2.151791,9.302915,16.609411,0.054014,-0.575813,-0.422877,7.680000,21.557913

3.212467,-1.775773,10.165122,16.574116,0.133154,-0.353316,-0.482032,7.664000,21.557913

1.871256,1.071905,9.650192,16.594706,-0.059765,-0.191307,-0.345603,7.668000,21.557913

0.374369,1.431158,8.711345,16.597647,0.118232,-0.081791,-0.294442,7.660000,21.557913

-1.783544,2.211934,8.706554,16.585880,0.163797,-0.187044,-0.357594,7.656000,21.557913

0.211507,2.456226,8.823911,16.568233,0.091852,-0.247264,-0.329615,7.660000,21.557913

1.361117,3.090906,9.875324,16.591763,0.055347,-0.209427,-0.244880,7.660000,21.557913

0.465380,2.767579,9.142448,16.588821,0.019108,-0.128156,-0.183860,7.656000,21.557913

-1.007557,3.244188,8.486213,16.582939,0.046287,-0.074064,-0.241683,7.660000,21.557913

-0.966842,3.550750,8.162886,16.571175,0.121163,-0.237672,-0.265664,7.656000,21.557913

-0.787216,2.159244,8.876601,16.582939,0.072933,-0.285369,-0.276589,7.660000,21.557913

-1.496141,3.043006,9.939990,16.571175,0.046820,-0.288033,-0.342939,7.664000,21.557913

-1.675768,3.390284,8.996352,16.582939,0.123295,-0.225414,-0.452455,7.660000,21.557913

-1.977540,3.965089,7.995234,16.588821,0.064140,-0.274444,-0.527331,7.664000,21.557913

-2.811007,4.240516,9.477751,16.568233,0.039093,-0.356248,-0.537723,7.672000,21.557913

-2.945128,4.817716,9.015512,16.588821,0.193907,-0.391154,-0.541986,7.672000,21.557913

-1.488956,5.675133,9.575947,16.588821,0.053482,-0.525451,-0.397563,7.676000,21.557913

0.642611,5.011713,9.645403,16.585880,0.159267,-0.501203,0.102853,7.684000,21.557913

1.923947,4.204591,9.724438,16.565292,0.136351,-0.464698,0.411150,7.684000,21.557913

4.148920,1.898187,8.677814,16.571175,0.145678,-0.370370,0.614728,7.684000,21.557913

2.709513,2.338870,10.095666,16.582939,-0.066160,-0.202232,0.732771,7.692000,21.557913

2.575392,1.320987,10.917158,16.585880,-0.144500,-0.089785,0.710121,7.688000,21.557913

1.986217,1.531749,11.156660,16.585880,0.105708,0.103400,0.670951,7.680000,21.557913

2.252064,-0.496833,8.507768,16.609411,0.234143,0.059167,0.649634,7.680000,21.557913

-0.013624,-3.368461,8.330537,16.597647,-0.125048,0.194797,0.640574,7.672000,21.557913

-2.928363,-0.350737,11.039304,16.612352,-0.120518,0.326429,0.553441,7.672000,21.557913

-1.591942,0.003726,10.289662,16.591763,0.110771,0.275002,0.343735,7.660000,21.557913

-1.659003,0.911439,9.513677,16.597647,0.086523,0.155893,0.262997,7.660000,21.557913

-0.111820,1.536539,7.968888,16.615294,-0.071489,0.092475,0.308029,7.660000,21.557913

0.963544,1.383258,9.317285,16.615294,-0.016332,0.150031,0.316556,7.656000,21.557913

1.641334,3.248978,9.575947,16.606470,0.037494,0.275801,0.353594,7.656000,21.557913

0.441429,4.127950,9.250224,16.618235,0.022838,0.338687,0.312026,7.656000,21.557913

-0.174091,3.110067,8.332932,16.627058,0.014045,0.338154,0.193184,7.656000,21.557913

-0.018414,1.993988,8.668234,16.615294,-0.066960,0.328828,0.082602,7.664000,21.557913

0.659376,4.626114,8.419152,16.627058,-0.033119,0.479379,-0.159346,7.664000,21.557913

-0.104635,3.648946,8.215575,16.629999,-0.018730,0.425820,-0.355995,7.668000,21.557913

-1.805099,4.585399,8.773615,16.621176,-0.031520,0.406635,-0.474038,7.664000,21.557913

-2.377509,3.620206,9.753179,16.629999,-0.179140,0.316037,-0.496154,7.664000,21.557913

-1.120123,4.139925,9.233459,16.638823,0.047086,0.264344,-0.534259,7.676000,21.557913

-1.536857,4.539894,8.615544,16.618235,-0.017397,0.160423,-0.524666,7.672000,21.557913

-2.183512,3.301668,8.574828,16.618235,-0.056035,0.123118,-0.351998,7.680000,21.557913

-2.070946,3.795042,9.623847,16.638823,-0.018730,0.065296,-0.176666,7.680000,21.557913

-3.297196,2.822664,9.580737,16.632940,0.163531,0.038916,-0.128969,7.688000,21.557913

-4.691098,0.889884,9.561577,16.627058,-0.074953,-0.024768,-0.065551,7.684000,21.557913

-5.000055,0.880304,9.468171,16.615294,-0.105597,-0.023702,-0.125239,7.688000,21.557913

-4.913834,-0.005854,9.980705,16.638823,-0.024326,-0.071133,-0.031977,7.688000,21.557913

-3.426527,-1.409335,9.633428,16.629999,0.017509,-0.167326,-0.078874,7.684000,10.747454

-3.706744,-1.361435,9.827424,16.624117,-0.132776,-0.226747,-0.036773,7.684000,10.747454

-3.311566,0.077972,11.398557,16.612352,-0.085878,-0.266183,0.062351,7.672000,10.747454

-0.698600,0.396510,10.313613,16.632940,0.161399,-0.472425,0.129499,7.668000,10.747454

1.670074,-1.337485,8.361671,16.629999,0.057212,-0.415935,0.264063,7.668000,10.747454

2.544257,0.741392,10.603411,16.629999,0.055080,-0.126290,0.348265,7.664000,10.747454

0.079781,1.390443,8.878996,16.621176,0.084391,-0.070067,0.444991,7.660000,10.747454

-2.332003,0.909044,8.201205,16.624117,0.049751,-0.035160,0.369849,7.652000,10.747454

-1.110543,2.659803,9.951965,16.629999,-0.007805,-0.097779,0.199579,7.656000,10.747454

1.500028,4.844061,8.943662,16.641764,0.016976,0.016001,0.134029,7.652000,10.747454

-0.253126,4.274046,7.719806,16.647646,0.032964,0.024527,0.027178,7.652000,10.747454

-2.401459,2.307735,8.941267,16.621176,-0.058966,0.033321,-0.163343,7.664000,10.747454

-2.715206,4.405772,9.408296,16.621176,-0.036583,0.066362,-0.257937,7.660000,10.747454

-1.134493,2.937625,9.298124,16.624117,-0.046708,-0.033295,-0.352798,7.668000,10.747454

-2.425409,3.450159,9.255014,16.627058,0.038560,-0.099644,-0.415683,7.668000,10.747454

-2.133217,3.874078,9.506492,16.632940,-0.003808,-0.281105,-0.406623,7.668000,10.747454

-0.990792,2.779554,8.615544,16.638823,0.146743,-0.295761,-0.285649,7.672000,10.747454

-1.251849,4.980577,7.362948,16.635881,0.075598,-0.367439,-0.029845,7.668000,10.747454

-1.421896,3.807017,9.420271,16.641764,-0.033385,-0.345589,0.128167,7.676000,10.747454

0.769547,3.902818,8.744875,16.635881,0.100645,-0.354382,0.203310,7.680000,10.747454

1.763480,3.553145,7.343788,16.635881,-0.048574,-0.346655,0.294706,7.684000,10.747454

0.594711,3.756722,8.696975,16.635881,-0.131710,-0.324272,0.377576,7.684000,10.747454

1.864071,3.766302,9.844189,16.629999,0.127558,-0.185978,0.478832,7.688000,10.747454

2.024537,1.706585,11.338681,16.647646,0.056946,-0.159598,0.441261,7.688000,10.747454

2.865189,1.594019,10.490845,16.629999,-0.052837,-0.045286,0.533723,7.692000,10.747454

2.582577,1.498219,9.959150,16.656469,-0.023260,0.093275,0.686140,7.688000,10.747454

4.491407,1.811966,11.760204,16.629999,-0.098669,0.147633,0.734103,7.684000,10.747454

3.705841,1.184471,11.889536,16.647646,0.049218,0.263544,0.676547,7.680000,10.747454

3.138221,-1.505136,9.240644,16.656469,0.031898,0.480178,0.500149,7.680000,10.747454

-0.511788,-0.647719,7.341393,16.644705,-0.005407,0.568644,0.345334,7.680000,10.747454

-1.457821,2.037098,10.050160,16.644705,-0.097070,0.405835,0.240614,7.672000,10.747454

-2.952313,0.827613,9.781919,16.656469,0.063074,0.388782,-0.064219,7.672000,10.747454

-2.109267,1.711375,9.037067,16.659410,0.063074,0.221443,-0.308565,7.664000,10.747454

-0.322582,2.966366,8.320956,16.659410,-0.043511,0.231569,-0.359726,7.672000,10.747454

-1.472191,1.723350,8.364067,16.668234,-0.008338,0.270472,-0.293110,7.672000,10.747454

-0.154930,3.584280,9.597502,16.650587,-0.024059,0.161756,-0.234755,7.672000,10.747454

1.246156,3.785462,9.389135,16.647646,-0.135174,0.166019,-0.133233,7.664000,10.747454

2.769388,2.987921,8.500583,16.662352,-0.054169,0.179875,-0.108718,7.668000,10.747454

1.526373,5.409286,8.297007,16.671175,0.047353,0.244359,-0.031710,7.672000,10.747454

2.146683,4.010594,9.101733,16.662352,-0.089342,0.257149,-0.083138,7.672000,10.747454

0.707277,3.205868,8.270661,16.650587,0.038560,0.330959,-0.114047,7.680000,10.747454

1.368302,3.910003,7.518625,16.659410,-0.103731,0.259814,-0.177732,7.676000,10.747454

0.846188,3.313643,8.081454,16.671175,-0.060031,0.383719,-0.210507,7.684000,10.747454

-0.478258,2.693333,8.855046,16.647646,-0.017131,0.396775,-0.244347,7.688000,10.747454

-1.488956,2.547237,7.875483,16.659410,-0.128512,0.391180,-0.264066,7.688000,10.747454

-2.933153,2.118529,7.932963,16.656469,-0.070157,0.240895,-0.280586,7.692000,10.747454

-3.634894,3.351964,9.245434,16.656469,-0.055502,0.250488,-0.249144,7.696000,10.747454

-5.364098,1.203631,10.093271,16.653528,-0.026191,0.147633,-0.272326,7.696000,10.747454

-5.445529,1.174891,10.122011,16.656469,0.018575,0.030922,-0.246479,7.696000,10.808927

-5.110226,0.643197,8.433522,16.644705,0.072933,-0.132686,-0.215303,7.692000,10.808927

-5.263507,-1.014157,10.404624,16.635881,-0.038182,-0.319742,-0.210773,7.688000,10.808927

-4.652777,-2.230827,11.400951,16.662352,-0.123450,-0.384226,-0.143625,7.684000,10.808927

-2.686466,0.954549,11.575788,16.638823,0.091586,-0.308284,-0.053827,7.684000,10.808927

-2.791847,-0.583053,9.159214,16.656469,0.137151,-0.385025,0.027444,7.676000,10.808927

1.636544,-0.741125,9.401111,16.644705,-0.036583,-0.656284,0.043965,7.672000,10.808927

4.263881,-0.324391,9.458591,16.638823,0.086523,-0.333865,0.047962,7.668000,10.808927

2.668797,1.423973,9.781919,16.635881,0.064673,-0.184912,0.030642,7.664000,10.808927

-0.210016,1.328172,8.105405,16.627058,0.121163,-0.061807,-0.140427,7.664000,10.808927

-3.972592,2.154454,10.052556,16.638823,0.063341,-0.055145,-0.336810,7.660000,10.808927

-2.207462,1.526959,9.501701,16.635881,0.065206,-0.253393,-0.472706,7.664000,10.808927

-0.633934,2.487362,9.494516,16.629999,0.028168,-0.273378,-0.521735,7.652000,10.808927

0.101337,2.075418,8.811935,16.629999,0.057478,-0.215289,-0.513208,7.664000,10.808927

-1.072223,3.304063,8.838281,16.641764,0.086256,-0.256058,-0.392234,7.652000,10.808927

-0.732130,3.737562,8.019184,16.647646,0.060410,-0.386624,-0.214770,7.660000,10.808927

0.860558,3.047796,9.513677,16.659410,0.108106,-0.361843,-0.011726,7.656000,10.808927

0.712067,5.016502,8.361671,16.641764,0.056679,-0.343990,0.236617,7.660000,10.808927

0.664166,4.331527,8.668234,16.638823,-0.014999,-0.335996,0.286446,7.660000,10.808927

0.333654,4.391402,9.434641,16.647646,0.099313,-0.243800,0.210504,7.668000,10.808927

-0.952472,3.792647,8.491003,16.632940,-0.010203,-0.222483,0.123371,7.676000,10.808927

-2.621801,5.078773,9.633428,16.629999,-0.005940,-0.285102,0.085800,7.680000,10.808927

-0.619564,3.720797,9.966335,16.638823,0.158201,-0.300290,0.110314,7.684000,10.808927

-0.241151,2.858590,9.899275,16.650587,-0.029388,-0.266983,0.071411,7.684000,10.808927

0.642611,3.239398,10.574670,16.641764,-0.060031,-0.205163,0.082869,7.684000,10.808927

2.525096,3.663316,9.937595,16.659410,-0.002476,-0.136682,0.155613,7.684000,21.075425

3.222047,2.736444,8.946056,16.662352,0.115034,-0.161996,0.276587,7.684000,21.075425

5.094953,2.530472,9.331655,16.662352,0.129956,-0.001852,0.501748,7.684000,21.075425

3.387303,1.062325,8.285031,16.644705,0.100912,0.206255,0.682942,7.684000,21.075425

0.757572,-2.915802,9.745994,16.641764,-0.095737,0.331226,0.675215,7.680000,21.075425

0.170792,-0.065729,9.995075,16.653528,-0.019796,0.313639,0.579288,7.680000,21.075425

-1.960775,1.452713,9.360395,16.635881,0.095849,0.452466,0.482829,7.672000,21.075425

-0.921337,-0.065729,10.083691,16.650587,-0.080816,0.306711,0.402890,7.676000,21.075425

-1.079408,2.173614,8.567643,16.650587,0.123028,0.235033,0.070345,7.664000,21.075425

-1.287775,2.678963,9.398716,16.665293,-0.078684,0.176144,0.057022,7.664000,21.075425

-0.638724,3.407049,9.796288,16.656469,0.005518,0.215314,0.076473,7.668000,21.075425

-1.546437,1.910162,9.312495,16.662352,0.023371,0.233434,0.020516,7.656000,21.075425

-0.353717,4.561449,9.693303,16.674116,0.075331,0.135376,-0.058357,7.668000,21.075425

0.405504,4.324342,9.829819,16.685881,-0.053903,0.150564,-0.097793,7.668000,21.075425

0.055831,2.765184,9.619058,16.679998,-0.024059,0.204123,-0.084470,7.668000,21.075425

0.910853,5.378150,8.011999,16.671175,0.051083,0.284328,-0.019453,7.672000,21.075425

1.804196,4.836876,7.748547,16.671175,-0.030188,0.319768,0.250207,7.676000,21.075425

1.761085,4.206986,8.344907,16.665293,-0.061364,0.404769,0.473769,7.676000,21.075425

0.827027,4.206986,8.970007,16.685881,-0.085079,0.441008,0.540918,7.680000,21.075425

-0.530949,4.381822,7.949728,16.677057,0.104642,0.532405,0.359457,7.688000,21.075425

-1.357230,4.389007,7.468329,16.659410,-0.050705,0.506558,0.094326,7.684000,21.075425

-2.439779,3.375914,9.324470,16.671175,-0.148763,0.549192,-0.103122,7.688000,21.075425

-2.729577,2.628668,10.598620,16.665293,-0.078684,0.515618,-0.341873,7.700000,21.075425

-2.765502,3.397469,8.917316,16.668234,-0.042711,0.476448,-0.480433,7.696000,21.442266

-3.977382,1.919742,8.682605,16.682940,-0.062430,0.262212,-0.584354,7.692000,21.442266

-5.814362,0.449200,10.186677,16.674116,-0.169015,0.143370,-0.684010,7.696000,21.442266

-6.336476,-1.847624,10.675261,16.671175,-0.175410,0.007474,-0.748761,7.692000,21.442266

-5.804781,0.892279,11.108760,16.662352,0.047353,-0.087387,-0.755689,7.692000,21.442266

-4.085157,-0.583053,9.633428,16.665293,0.126759,-0.298159,-0.726112,7.692000,21.442266

-1.110543,-1.263239,9.437036,16.677057,0.038027,-0.518257,-0.682678,7.688000,21.442266

-0.114215,-0.733940,10.066926,16.656469,0.003920,-0.478287,-0.431937,7.680000,21.442266

1.138380,-0.070519,11.173425,16.665293,0.132354,-0.491078,-0.290445,7.672000,21.442266

-0.126190,-0.171110,9.319680,16.653528,0.124094,-0.490012,-0.172403,7.676000,21.442266

2.165843,0.909044,8.510163,16.644705,-0.024592,-0.271246,-0.126571,7.664000,21.442266

0.918038,2.729259,8.759245,16.656469,0.202434,-0.118297,0.139359,7.664000,21.442266

-2.930758,2.944810,10.054951,16.665293,0.061475,-0.136150,0.169735,7.656000,21.442266

-1.512907,1.656290,9.365185,16.650587,0.029500,-0.361577,0.138026,7.664000,21.442266

0.965939,4.008199,7.853928,16.632940,0.140348,-0.260854,0.215567,7.660000,21.442266

-0.631539,3.040611,8.222761,16.632940,-0.002476,-0.220352,0.185190,7.652000,21.442266

-0.724945,2.302945,10.016630,16.647646,0.031632,-0.233675,0.170002,7.660000,21.442266

-0.782426,4.518338,8.359277,16.671175,0.079861,-0.282704,0.327747,7.668000,21.442266

-1.218319,3.967484,8.081454,16.644705,0.038560,-0.227546,0.281650,7.664000,21.442266

-1.824259,4.396193,9.911250,16.662352,0.058544,-0.202765,0.106850,7.664000,21.442266

-1.881740,4.020175,8.476633,16.653528,0.082792,-0.213957,-0.066617,7.676000,21.442266

-0.351322,4.254886,8.981982,16.638823,0.009515,-0.325071,-0.199848,7.672000,21.442266

-0.289052,5.023687,8.627519,16.638823,0.044688,-0.304021,-0.250210,7.676000,21.442266

-0.763265,4.036940,9.300520,16.662352,0.010048,-0.383427,-0.264332,7.680000,21.442266

0.407899,2.564002,10.031001,16.644705,0.025769,-0.345856,-0.077275,7.684000,21.442266

0.913248,5.200919,9.995075,16.653528,0.036161,-0.303222,0.123637,7.692000,21.442266

3.296293,6.324183,8.740085,16.659410,0.068670,-0.317344,0.223294,7.692000,21.442266

2.101178,1.713770,8.526928,16.677057,0.177120,-0.260588,0.307763,7.692000,21.442266

3.286713,1.835916,8.426337,16.647646,-0.045110,-0.196104,0.362121,7.696000,21.442266

4.321361,2.631063,10.016630,16.659410,0.082259,0.121253,0.334409,7.696000,21.442266

3.267552,2.899305,9.678933,16.656469,0.022305,0.247556,0.435931,7.688000,21.442266

1.955082,0.786898,11.820080,16.671175,-0.160221,0.338953,0.354127,7.688000,21.442266

0.609081,-1.794933,9.092153,16.662352,0.103310,0.450601,0.242480,7.680000,21.442266

-0.844696,-0.501623,8.907737,16.650587,-0.013401,0.369063,0.361322,7.676000,21.442266

-4.025282,1.309012,9.757969,16.668234,0.038293,0.503094,0.359989,7.676000,21.442266

-4.147428,-0.372292,8.912526,16.653528,-0.084812,0.276601,0.143622,7.668000,21.442266

-1.829049,1.342542,9.008327,16.659410,0.042557,0.149498,0.113778,7.664000,21.442266

-1.108148,2.326895,10.069321,16.679998,-0.000077,0.234500,0.109248,7.664000,21.442266

-3.052904,1.131781,9.199929,16.677057,-0.047508,0.163621,-0.140427,7.660000,21.442266

-1.589547,2.863380,9.784313,16.656469,-0.029655,0.102867,-0.472439,7.660000,21.442266

0.051041,3.759117,8.277846,16.679998,-0.091741,0.065296,-0.512409,7.664000,21.442266

2.551442,4.918307,7.906618,16.677057,-0.051505,0.055703,-0.467110,7.660000,21.442266

1.979032,4.602164,9.499307,16.665293,0.019907,0.171615,-0.382109,7.660000,21.442266

1.085690,2.920860,8.457473,16.671175,-0.016865,0.205722,-0.171870,7.664000,21.442266

-0.329767,2.959180,8.756850,16.656469,-0.093606,0.189734,0.108982,7.668000,21.442266

0.118102,4.286021,9.039463,16.668234,-0.081881,0.250488,0.375444,7.672000,21.442266

-0.509393,4.353082,9.338840,16.662352,0.007916,0.334690,0.431401,7.680000,21.442266

-2.887648,3.193892,10.112432,16.682940,-0.076552,0.324831,0.375711,7.680000,21.442266

-2.437384,4.947047,8.701765,16.647646,0.064406,0.280065,0.225159,7.680000,10.607748

-4.092343,4.865616,8.984377,16.659410,-0.100800,0.393578,0.027711,7.688000,10.607748

-4.123478,3.445369,10.076506,16.659410,-0.022993,0.237964,-0.113248,7.692000,10.607748

-3.658844,0.657567,9.983100,16.653528,0.070002,0.140971,-0.205444,7.696000,10.607748

-5.064721,1.807176,9.580737,16.656469,-0.062963,0.005076,-0.161744,7.688000,10.607748

-4.073183,1.989197,9.985496,16.659410,-0.034718,-0.212891,-0.098592,7.696000,10.607748

-4.408485,0.049232,10.852492,16.647646,-0.003275,-0.177451,-0.162810,7.692000,10.607748

-4.121083,-0.674064,11.142290,16.671175,0.053215,-0.360245,-0.185459,7.692000,10.607748

-4.020492,-0.551918,10.502819,16.671175,0.101711,-0.485482,-0.019187,7.684000,10.607748

1.267711,0.442015,10.148356,16.650587,0.047886,-0.564088,0.082602,7.684000,10.607748

-0.171696,-2.748151,10.792617,16.653528,0.069736,-0.490278,0.151616,7.680000,10.607748

4.218375,1.409603,8.304192,16.659410,0.011114,-0.276309,0.125236,7.672000,10.607748

0.405504,1.265902,8.981982,16.641764,0.076131,-0.085522,0.160409,7.672000,10.607748

-0.456703,1.275482,9.592712,16.635881,0.081460,-0.118563,0.117242,7.664000,10.607748

0.968334,1.871841,9.872930,16.632940,-0.046175,-0.067136,-0.031444,7.668000,10.607748

1.995797,3.359149,9.645403,16.653528,0.121163,0.017333,-0.120442,7.660000,10.607748

2.151473,3.797437,8.423943,16.638823,0.073200,0.025593,-0.111649,7.660000,10.607748

-0.109425,4.254886,8.165280,16.650587,-0.093606,0.023461,-0.188124,7.668000,10.607748

0.096547,3.155572,9.547207,16.644705,-0.036583,-0.025035,-0.313628,7.668000,10.607748

-2.090106,3.407049,8.438313,16.635881,0.094250,0.073024,-0.388237,7.668000,10.607748

-1.342860,2.750814,8.627519,16.632940,-0.094672,-0.070600,-0.538256,7.672000,10.607748

0.015116,3.488480,9.099339,16.635881,-0.004341,-0.161730,-0.647772,7.672000,10.607748

1.274896,5.629627,7.839557,16.638823,0.058278,-0.226214,-0.726644,7.672000,10.607748

0.534835,4.080050,8.366462,16.627058,0.009782,-0.269647,-0.800988,7.680000,10.607748

-1.766779,3.675291,9.578342,16.632940,-0.013667,-0.211558,-0.696268,7.680000,10.607748

0.034276,7.001974,10.019026,16.629999,0.089987,-0.244333,-0.577692,7.684000,10.607748

1.538348,4.218961,8.816726,16.641764,0.160067,-0.342391,-0.483897,7.696000,10.607748

0.879718,1.572464,9.089758,16.632940,-0.076286,-0.337862,-0.248877,7.692000,10.607748

-0.348927,5.224869,10.076506,16.641764,-0.009670,-0.205163,0.005861,7.696000,10.607748

2.996915,2.532867,8.404782,16.632940,0.063341,-0.235274,0.120706,7.692000,10.607748

2.053277,2.813084,8.890971,16.641764,0.067071,-0.178517,0.308296,7.696000,10.607748

4.412372,2.379586,10.447734,16.656469,-0.132509,-0.019439,0.564899,7.696000,10.607748

1.296451,0.604876,10.184282,16.624117,-0.055502,0.180408,0.601138,7.696000,10.607748

1.224601,0.815638,9.930409,16.635881,-0.051771,0.180941,0.490823,7.692000,10.607748

1.023419,0.923414,9.607082,16.653528,-0.051771,0.374126,0.470571,7.692000,10.607748

-0.387247,-1.371015,10.196257,16.641764,-0.069624,0.272604,0.482296,7.680000,10.607748

-3.575018,-1.050082,10.383068,16.644705,0.065472,0.338953,0.357858,7.680000,10.607748

-3.215765,1.725745,9.920830,16.635881,-0.000877,0.171881,0.136960,7.672000,10.607748

-1.148864,1.577254,7.961703,16.635881,-0.057633,0.061832,0.043166,7.672000,10.607748

0.822237,0.851563,9.446616,16.641764,-0.027257,0.175878,-0.038905,7.668000,10.607748

-1.800309,3.366334,8.313771,16.641764,0.051083,0.272071,-0.146822,7.672000,10.607748

-0.837511,2.990316,10.222602,16.629999,-0.112258,0.133777,-0.285383,7.672000,10.607748

-0.248336,2.403536,10.548325,16.641764,-0.117321,0.186537,-0.510810,7.668000,10.607748

-0.818351,4.240516,9.853769,16.653528,-0.037649,0.223042,-0.629119,7.676000,10.607748

-0.739315,4.848851,8.919712,16.644705,0.051616,0.132445,-0.425808,7.680000,10.607748

-0.653095,3.761512,8.843071,16.650587,-0.030188,0.076221,-0.147089,7.680000,10.607748

-1.706903,3.318433,9.887300,16.641764,-0.077352,0.107131,0.167604,7.684000,10.607748

-0.001649,4.788976,9.544811,16.641764,0.107840,0.038383,0.519601,7.688000,10.607748

-0.650700,4.228541,7.755732,16.653528,0.106508,0.026393,0.754887,7.692000,10.778680

-2.339188,2.314920,8.435918,16.632940,-0.061630,-0.004517,0.724777,7.696000,10.778680

-3.057694,0.942574,9.626243,16.650587,-0.088809,0.055970,0.544382,7.692000,10.778680

-2.061366,2.892120,8.910131,16.659410,-0.066160,0.162555,0.382372,7.696000,10.778680

-3.917506,1.397628,9.049043,16.656469,-0.117321,0.131379,0.288311,7.696000,10.778680

-5.534144,2.640643,10.445339,16.641764,0.015910,0.075422,0.139891,7.704000,10.778680

-5.500614,1.819151,9.954360,16.650587,-0.093073,-0.095647,0.018385,7.700000,10.778680

-4.767738,0.422855,10.304033,16.632940,0.001521,-0.263252,-0.029845,7.704000,10.778680

-3.055299,-1.069242,10.217813,16.647646,0.007384,-0.420998,-0.073545,7.700000,10.778680

-1.548832,0.327054,10.862072,16.641764,-0.106929,-0.499071,0.052758,7.692000,10.778680

0.364789,-2.158976,12.181728,16.650587,-0.036583,-0.333332,0.232354,7.684000,10.778680

6.215822,0.319869,9.408296,16.665293,0.024437,-0.088986,0.138559,7.684000,10.778680

1.461708,1.246742,7.849137,16.656469,0.156869,0.231036,0.160942,7.676000,10.778680

-2.969078,1.373677,9.123288,16.653528,0.038826,-0.084456,-0.171870,7.668000,10.778680

-0.923732,1.972432,8.459867,16.638823,0.021240,-0.156667,-0.305367,7.668000,10.778680

1.947897,2.892120,9.099339,16.671175,0.026302,-0.172388,-0.360525,7.668000,10.778680

1.380277,2.844219,8.931686,16.644705,-0.008871,-0.037026,-0.436200,7.668000,10.778680

-2.245783,2.956785,9.714858,16.659410,-0.003541,-0.050882,-0.375713,7.672000,10.778680

-1.318910,4.446488,8.364067,16.644705,0.092385,-0.198502,-0.103389,7.676000,10.778680

-0.849486,2.853800,9.348420,16.665293,-0.082947,-0.142811,0.111380,7.672000,10.778680

-2.339188,2.959180,10.488449,16.656469,0.029766,-0.142545,0.354127,7.672000,10.778680

0.175582,5.141044,8.577224,16.671175,0.123028,-0.256324,0.416213,7.680000,10.778680

1.871256,3.716007,7.825187,16.668234,0.025769,-0.218753,0.359723,7.684000,21.626743

-2.554740,2.767579,8.783195,16.656469,0.034829,-0.065803,0.176130,7.680000,21.626743

-1.120123,2.676568,8.835886,16.674116,-0.086411,-0.159598,-0.039704,7.688000,21.626743

-0.286657,3.213053,9.317285,16.674116,-0.093872,-0.065271,-0.098326,7.696000,21.626743

0.920433,4.027359,8.835886,16.665293,-0.057367,-0.084722,-0.091664,7.696000,21.626743

1.435363,4.204591,9.367580,16.665293,0.043889,0.011204,-0.007462,7.696000,21.626743

2.838844,3.438184,9.403505,16.662352,0.003387,-0.015442,0.091928,7.696000,21.626743

4.139339,1.294642,10.090877,16.685881,-0.141835,0.035452,0.178262,7.704000,21.626743

1.816171,1.395233,10.466894,16.677057,-0.041912,0.252619,0.325349,7.700000,21.626743

1.658099,2.779554,9.338840,16.668234,-0.000877,0.274736,0.407420,7.700000,21.626743

1.751505,1.256322,9.731624,16.682940,-0.008071,0.337088,0.479898,7.696000,21.626743

3.588485,0.602481,9.662168,16.697645,0.030832,0.474849,0.421276,7.688000,21.626743

-1.908085,-0.350737,10.371094,16.671175,0.062008,0.477780,0.296305,7.688000,21.626743

-1.915270,-0.628559,9.489726,16.674116,-0.039514,0.445005,0.094593,7.684000,21.626743

-3.215765,0.650382,8.605964,16.694704,0.021506,0.407434,-0.039704,7.676000,21.626743

-1.960775,1.589229,7.956913,16.691763,-0.080016,0.228371,-0.152418,7.676000,21.626743

-0.253126,2.609508,9.386741,16.674116,-0.013134,0.201192,-0.179863,7.672000,21.626743

-0.633934,3.344779,10.059741,16.691763,0.114235,0.259281,-0.139361,7.672000,21.626743

-2.509235,3.179522,8.783195,16.694704,0.014045,0.213183,-0.163343,7.676000,21.626743

-2.466124,4.851246,7.880273,16.682940,-0.003009,0.166552,-0.145223,7.680000,21.626743

0.027091,2.638248,8.570039,16.682940,-0.113324,0.011471,-0.085003,7.680000,21.626743

1.049764,2.439461,9.334050,16.691763,-0.100001,0.139373,-0.098859,7.680000,21.626743

-0.135770,3.440579,9.896879,16.688822,-0.100800,0.203324,-0.069282,7.688000,21.626743

-0.820746,5.296720,9.084968,16.685881,-0.111459,0.297118,-0.023716,7.684000,21.821381

0.307308,4.125555,9.020303,16.697645,-0.048840,0.322432,-0.000001,7.692000,21.821381

-1.498536,3.507640,8.423943,16.688822,-0.053903,0.307510,-0.081272,7.696000,21.821381

-2.320028,1.663475,8.610754,16.674116,-0.124515,0.251020,-0.147355,7.696000,21.821381

-3.278036,3.519615,9.827424,16.674116,-0.089076,0.283529,-0.257937,7.700000,21.821381

-3.527118,4.051310,9.077783,16.679998,0.024171,0.167618,-0.405291,7.704000,21.821381

-5.330568,0.283944,9.865745,16.662352,-0.035517,0.081817,-0.443661,7.700000,21.821381

-5.462294,0.243228,11.106364,16.665293,-0.123982,-0.041822,-0.477769,7.704000,21.821381

-5.450319,-0.302836,9.772339,16.668234,0.035362,-0.462833,-0.415683,7.700000,21.821381

-3.244506,-0.994997,10.672866,16.682940,0.003120,-0.487880,-0.261934,7.704000,21.821381

-1.666188,-0.599819,10.732741,16.665293,0.075598,-0.396217,-0.119377,7.704000,21.821381

-2.765502,-1.390175,9.611873,16.671175,0.144079,-0.448976,-0.036507,7.692000,21.821381

1.365907,-0.058544,8.783195,16.662352,0.093984,-0.415669,-0.055426,7.688000,21.821381

3.947738,-1.888339,9.901670,16.671175,-0.025391,-0.437519,-0.288847,7.680000,21.821381

4.144130,3.052586,9.544811,16.677057,-0.016598,-0.048483,-0.262733,7.676000,21.821381

0.474960,2.032308,10.780642,16.668234,0.120364,-0.016508,-0.167073,7.676000,21.821381

-2.394274,1.069510,9.520862,16.665293,0.149941,-0.064738,-0.347202,7.672000,21.821381

-0.562084,1.062325,7.676696,16.665293,0.025769,-0.206762,-0.433802,7.668000,21.821381

1.021024,5.006922,9.089758,16.653528,0.071867,-0.229944,-0.179331,7.676000,21.821381

-0.885411,4.420143,9.607082,16.644705,0.070002,-0.164395,-0.016522,7.672000,21.821381

-2.399064,1.390443,8.902946,16.668234,0.019641,-0.191041,-0.042102,7.676000,21.821381

-3.718719,2.741234,9.626243,16.659410,0.051616,-0.189975,0.024780,7.684000,21.821381

-2.042206,5.373360,9.020303,16.665293,-0.085079,-0.170790,0.126035,7.684000,21.893632

-0.243546,4.652460,9.178373,16.682940,0.084658,-0.234474,0.194250,7.684000,21.893632

-0.693810,3.845338,9.410690,16.677057,0.166195,-0.209160,0.171601,7.692000,21.893632

-0.899782,2.587952,8.189230,16.674116,-0.024059,-0.265650,0.131631,7.692000,21.893632

-0.538134,3.565120,8.074269,16.682940,-0.056035,-0.246199,0.150550,7.696000,21.893632

0.539625,4.640484,8.649075,16.682940,0.021506,-0.181182,0.161741,7.700000,21.893632

0.865348,4.487203,9.223879,16.694704,-0.007805,-0.084722,0.179061,7.704000,21.893632

1.236576,1.984407,8.946056,16.685881,-0.066160,-0.048217,0.237417,7.704000,21.893632

2.295175,2.312525,9.389135,16.668234,-0.131710,0.021330,0.240348,7.704000,21.893632

2.625687,3.854918,10.589040,16.662352,-0.030188,0.143370,0.213435,7.708000,21.893632

3.811222,1.867052,9.341235,16.694704,-0.024326,0.286726,0.279518,7.704000,21.893632

2.259249,-0.561498,10.435759,16.694704,-0.257480,0.379722,0.213435,7.700000,21.893632

1.823356,-0.017829,9.911250,16.703527,-0.139970,0.449269,0.071411,7.700000,21.893632

-1.352440,-0.207035,10.380673,16.709410,-0.017930,0.600619,-0.070347,7.696000,21.893632

-2.358348,1.033585,9.365185,16.703527,0.035362,0.372261,-0.224629,7.684000,21.893632

-3.531908,0.310289,9.726833,16.691763,0.002054,0.287259,-0.405024,7.680000,21.893632

-3.486403,1.433553,9.884905,16.674116,0.055347,0.174013,-0.583288,7.684000,21.893632

-2.942733,1.505404,8.840676,16.679998,0.006851,0.088745,-0.651236,7.680000,21.893632

-2.451754,2.983131,8.608358,16.697645,0.050550,-0.083390,-0.508678,7.680000,21.893632

-1.920060,3.318433,9.449011,16.685881,0.097181,-0.120961,-0.318158,7.688000,21.893632

-0.621959,1.879027,7.971283,16.694704,0.038560,-0.137215,-0.119377,7.680000,21.893632

-0.305817,2.777159,9.348420,16.691763,0.039093,-0.207295,0.211303,7.688000,21.893632

-0.950077,5.433236,9.496911,16.697645,-0.112525,-0.088719,0.481230,7.696000,22.187452

-1.050668,4.616534,9.832214,16.697645,-0.020595,0.067161,0.569695,7.692000,22.187452

1.107245,4.767420,9.865745,16.685881,0.041491,0.075955,0.687472,7.700000,22.187452

-0.135770,3.603441,8.981982,16.694704,0.005785,0.163088,0.793524,7.696000,22.187452

-1.292565,4.501573,7.861113,16.679998,0.084658,0.083682,0.776204,7.700000,22.187452

-1.910480,4.456068,7.662326,16.679998,-0.044310,0.158558,0.750091,7.700000,22.187452

-1.493746,2.616693,9.913645,16.691763,-0.134375,0.205455,0.626718,7.704000,22.187452

-2.418224,2.980736,11.027328,16.674116,0.064673,0.301648,0.364786,7.708000,22.187452

-3.754645,2.578372,8.725715,16.668234,0.068137,0.213183,0.048495,7.712000,22.187452

-6.724469,1.737720,9.355605,16.662352,-0.139437,0.119388,-0.215037,7.708000,22.187452

-3.883976,1.414393,9.427456,16.665293,-0.124515,-0.131087,-0.445260,7.712000,22.187452

-3.618129,1.007240,12.263159,16.653528,-0.004607,-0.169990,-0.508945,7.712000,22.187452

-2.849328,-1.148278,10.502819,16.679998,0.119298,-0.406342,-0.505747,7.704000,22.187452

-2.118846,0.451595,8.831096,16.659410,0.092119,-0.506266,-0.408755,7.700000,22.187452

2.611317,-0.559103,9.307705,16.647646,-0.016332,-0.679733,-0.235021,7.700000,22.187452

1.782640,-0.293256,9.532837,16.656469,0.000455,-0.470826,0.040767,7.692000,22.187452

3.940553,-1.186598,9.882509,16.656469,0.044155,-0.367439,0.105251,7.684000,22.187452

2.723883,-0.489648,9.195139,16.662352,0.077197,-0.172921,0.217699,7.688000,22.187452

0.985099,4.060890,8.304192,16.641764,0.196305,-0.101243,0.385570,7.688000,22.187452

0.501305,5.138649,9.496911,16.656469,0.066272,-0.194771,0.446856,7.676000,22.187452

1.533558,2.429881,10.320798,16.641764,0.023904,-0.224615,0.488957,7.680000,22.187452

2.388580,3.371124,7.980864,16.632940,0.136618,-0.045552,0.435398,7.688000,22.187452

1.255736,4.458463,7.868298,16.647646,0.128624,-0.010113,0.223294,7.684000,22.187452

1.150355,2.815479,7.624006,16.629999,-0.076019,0.055970,0.000532,7.684000,22.347854

0.297728,2.657408,9.379556,16.629999,0.106241,0.133244,-0.349867,7.688000,22.347854

-0.324977,3.665711,8.553273,16.635881,-0.029388,0.063697,-0.750626,7.692000,22.347854

-0.947682,3.392679,8.232341,16.632940,-0.039247,0.036518,-0.881193,7.696000,22.347854

-2.269733,3.984249,9.214299,16.635881,-0.011535,0.002944,-0.844421,7.696000,22.347854

-3.529513,3.392679,9.444221,16.624117,-0.013134,-0.076728,-0.773542,7.696000,22.347854

-1.536857,3.122042,8.893367,16.629999,-0.019263,-0.295494,-0.597677,7.700000,22.347854

1.114430,4.058495,9.175979,16.644705,0.000189,-0.268581,-0.367720,7.704000,22.347854

0.556390,3.869288,9.523256,16.618235,0.125160,-0.198768,-0.157481,7.708000,22.347854

2.019747,2.884935,9.413086,16.621176,-0.066160,-0.345589,0.014654,7.712000,22.347854

3.444784,4.166270,8.934082,16.621176,0.046287,-0.172921,0.211037,7.716000,22.347854

2.687958,2.336475,10.112432,16.629999,0.076131,0.130313,0.573160,7.708000,22.347854

2.065253,0.731812,10.828542,16.627058,-0.011002,0.142570,0.545980,7.708000,22.347854

3.157382,0.897069,9.173584,16.612352,0.056146,0.237697,0.549444,7.708000,22.347854

2.400555,-0.877641,9.796288,16.624117,-0.060831,0.332558,0.486826,7.696000,22.347854

-1.546437,-1.265634,10.327983,16.618235,-0.016332,0.482310,0.353061,7.696000,22.347854

-1.261430,0.279154,9.214299,16.629999,0.117699,0.449002,0.148951,7.688000,22.347854

-2.547555,2.243070,8.768826,16.612352,0.048152,0.315504,0.002663,7.688000,22.347854

-1.144074,2.132899,7.966493,16.612352,-0.129045,0.185471,-0.018387,7.688000,22.347854

-0.066315,0.980894,9.166399,16.609411,0.007384,0.216647,-0.091132,7.680000,22.347854

-1.551227,1.548514,10.047766,16.603529,0.034296,0.143103,-0.179863,7.680000,22.347854

-1.232689,3.478900,8.558064,16.609411,-0.099734,0.093008,-0.179863,7.684000,22.293141

-0.732130,2.937625,8.878996,16.603529,-0.109594,0.135109,-0.131101,7.684000,22.293141

0.007931,4.705150,8.498188,16.615294,0.090520,0.243826,-0.037306,7.680000,22.293141

-1.314120,4.245306,9.223879,16.615294,-0.048041,0.188668,0.140957,7.688000,22.293141

-1.067433,3.155572,8.941267,16.606470,-0.014200,0.108729,0.325882,7.692000,22.293141

-0.703390,4.791370,9.022697,16.594706,-0.082414,0.191066,0.462311,7.696000,22.293141

-0.986002,3.902818,7.789262,16.618235,-0.029655,0.206521,0.547313,7.700000,22.293141

-0.916547,3.945928,7.621611,16.612352,-0.011802,0.310708,0.502014,7.696000,22.293141

-2.207462,3.284903,10.016630,16.597647,-0.085878,0.411164,0.371181,7.708000,22.293141

-2.219437,3.028636,9.609477,16.618235,-0.030188,0.438077,0.176397,7.704000,22.293141

-3.290011,2.231094,9.113708,16.597647,0.027368,0.324831,-0.209174,7.704000,22.293141

-5.141361,3.423814,9.360395,16.627058,-0.001676,0.306178,-0.435401,7.708000,22.293141

-7.047797,-1.387780,12.016472,16.600588,-0.221241,0.077553,-0.630185,7.708000,22.293141

-5.297038,-0.190270,11.415322,16.606470,0.038027,-0.075929,-0.833762,7.704000,22.293141

-6.113739,-0.999787,10.016630,16.600588,0.127558,-0.164395,-0.847618,7.700000,22.293141

-5.220397,-1.368620,8.469448,16.603529,0.112636,-0.390621,-0.809781,7.696000,22.293141

-5.069510,-1.476396,8.186835,16.609411,-0.005140,-0.508398,-0.812978,7.696000,22.293141

-0.061525,-0.216615,9.164003,16.600588,0.044688,-0.719969,-0.855346,7.692000,22.293141

2.189794,0.786898,9.659773,16.609411,0.180584,-0.603791,-0.672819,7.688000,22.293141

3.837567,1.016820,8.910131,16.600588,0.178985,-0.561690,-0.441530,7.684000,22.293141

4.206400,1.395233,8.850256,16.594706,0.223485,-0.432722,0.103386,7.676000,22.293141

0.918038,3.134017,9.441826,16.597647,0.163264,-0.286168,0.178795,7.668000,22.293141

1.030604,2.293365,9.063413,16.594706,0.181384,-0.367705,0.101521,7.668000,22.293141

0.886903,4.307577,7.820397,16.594706,0.018575,-0.277641,0.169735,7.668000,22.293141

1.607804,4.480018,8.565248,16.588821,0.063607,-0.179849,0.280850,7.672000,21.757375

0.630636,2.650223,9.008327,16.585880,0.031099,-0.096447,0.205974,7.672000,21.757375

-1.551227,3.550750,9.286150,16.594706,0.010315,-0.092983,0.061285,7.672000,21.757375

-1.639843,3.445369,8.687394,16.585880,-0.018197,-0.080192,-0.031444,7.672000,21.757375

-1.946405,3.823783,8.464658,16.579998,-0.011269,-0.122027,-0.116179,7.684000,21.757375

-1.666188,3.720797,8.823911,16.585880,-0.034718,-0.171856,-0.253141,7.684000,21.757375

0.779127,5.888289,10.227392,16.591763,-0.027790,-0.298425,-0.214770,7.688000,21.757375

1.076110,5.332645,9.829819,16.612352,0.188312,-0.253393,-0.047432,7.696000,21.757375

1.121615,4.415352,7.770102,16.597647,0.027901,-0.339727,0.077806,7.700000,21.757375

2.000587,3.948323,8.720924,16.594706,0.003653,-0.247264,0.230489,7.696000,21.757375

2.582577,3.938743,8.840676,16.585880,-0.019796,-0.161463,0.377576,7.700000,21.757375

3.176542,2.360425,10.213022,16.594706,0.035362,-0.047684,0.430869,7.704000,21.757375

3.310663,3.850127,9.803473,16.606470,-0.079750,0.110062,0.412749,7.700000,21.757375

2.383790,-0.654904,9.750783,16.603529,-0.132509,0.206521,0.429536,7.700000,21.757375

0.870138,0.767738,10.007051,16.603529,-0.084812,0.296319,0.376510,7.700000,21.757375

0.374369,0.298314,11.582973,16.597647,-0.073888,0.340818,0.187322,7.700000,21.757375

1.054554,0.719837,10.042975,16.624117,0.148875,0.511088,0.009058,7.688000,21.757375

-0.205226,-0.669274,9.695698,16.629999,-0.075220,0.234766,-0.012525,7.688000,21.757375

-2.734366,-0.151950,8.701765,16.635881,-0.046442,0.303514,-0.002932,7.684000,21.757375

-4.061207,0.964129,9.329260,16.618235,0.010848,0.168151,-0.025049,7.676000,21.757375

-2.593060,-0.048964,8.246711,16.618235,-0.041912,0.028791,-0.038372,7.676000,21.757375

-2.329608,3.533985,10.457314,16.644705,-0.096270,0.051440,0.082069,7.668000,21.757375

-1.397946,4.295601,10.232183,16.638823,-0.007005,0.062365,0.256868,7.676000,21.443226

-0.133375,2.911280,7.494675,16.629999,0.032697,0.016533,0.365052,7.672000,21.443226

-0.760870,4.001014,8.395202,16.632940,-0.046975,-0.000254,0.421542,7.680000,21.443226

-0.272286,4.233331,9.425060,16.629999,-0.018730,0.009605,0.472170,7.680000,21.443226

1.018629,5.718243,8.907737,16.632940,-0.023793,0.163621,0.378908,7.692000,21.443226

1.308426,4.477623,8.838281,16.635881,-0.088543,0.155627,0.221163,7.688000,21.443226

1.226996,3.955508,9.190349,16.615294,-0.135440,0.215314,0.222228,7.696000,21.443226

-0.593219,4.571029,8.217971,16.627058,-0.028322,0.296586,0.175597,7.704000,21.443226

1.186280,3.598651,7.734177,16.644705,0.004985,0.378390,0.192118,7.700000,21.443226

-1.122518,2.427486,7.913803,16.621176,-0.147964,0.421023,0.233953,7.704000,21.443226

-2.245783,3.177127,8.261081,16.615294,-0.065894,0.389847,0.261665,7.708000,21.443226

-2.082921,4.032149,9.772339,16.618235,-0.094139,0.280065,0.209172,7.708000,21.443226

-3.706744,1.823941,9.678933,16.627058,-0.003541,0.190267,0.123371,7.704000,21.443226

-4.782108,2.508917,10.050160,16.615294,0.046287,0.135642,0.001065,7.716000,21.443226

-6.841825,-0.348342,10.938713,16.627058,0.042024,-0.049016,-0.128436,7.708000,21.443226

-5.888607,0.585716,10.399834,16.632940,-0.102665,-0.094848,-0.204378,7.708000,21.443226

-4.717443,0.145033,11.084809,16.609411,0.052416,-0.329068,-0.384773,7.704000,21.443226

-2.624196,-0.283676,11.192585,16.615294,0.086256,-0.442581,-0.386372,7.704000,21.443226

-1.991910,1.129385,9.925620,16.641764,0.112636,-0.564355,-0.281119,7.700000,21.443226

2.795734,-0.937516,9.180769,16.609411,0.054281,-0.491078,-0.193453,7.692000,21.443226

5.415885,0.113897,8.483818,16.606470,0.099047,-0.522520,-0.172669,7.684000,21.443226

3.976478,0.133057,8.407177,16.606470,0.055347,-0.193705,0.006927,7.684000,21.443226

-0.315397,2.621483,9.295730,16.618235,-0.071223,-0.070333,0.281383,7.684000,21.443226

1.890416,2.573582,9.307705,16.597647,0.056146,-0.073797,0.247809,7.680000,21.443226

1.349142,6.010436,8.766430,16.591763,0.079328,0.073024,0.267261,7.688000,21.443226

-1.330885,4.827296,9.425060,16.609411,-0.010469,0.096206,0.024780,7.688000,21.443226

-1.297355,4.872801,8.395202,16.582939,-0.022460,-0.006649,-0.299239,7.692000,21.443226

-2.106871,3.466924,8.574828,16.591763,-0.059499,0.041048,-0.500418,7.688000,21.443226

-1.687743,2.798714,9.005932,16.591763,-0.103731,-0.066603,-0.517738,7.692000,21.443226

-1.934430,3.795042,9.813054,16.612352,-0.079217,-0.114566,-0.473505,7.700000,21.443226

-1.287775,5.622442,9.008327,16.591763,0.121163,-0.248863,-0.334678,7.700000,21.443226

0.166002,4.403378,8.625124,16.609411,-0.001943,-0.350119,0.007460,7.708000,21.443226

0.288148,4.599769,8.823911,16.585880,0.037494,-0.271779,0.360256,7.708000,21.443226

1.200651,4.197406,8.119775,16.585880,-0.037382,-0.226214,0.419944,7.708000,21.443226

2.984940,3.275323,9.413086,16.585880,-0.048307,-0.069534,0.395163,7.712000,21.443226

3.760927,3.071746,10.294453,16.591763,-0.107462,-0.021304,0.342936,7.716000,21.443226

3.887863,2.951995,10.471684,16.597647,-0.005140,0.178276,0.272057,7.716000,21.443226

3.947738,2.322105,8.862231,16.582939,-0.054702,0.301115,0.150284,7.720000,21.443226

2.503541,-1.236894,9.331655,16.582939,0.042290,0.478579,0.037037,7.716000,21.443226

0.345629,0.693492,9.130473,16.582939,-0.089609,0.542264,-0.111383,7.716000,21.443226

0.180372,-1.708713,10.751902,16.577057,-0.418423,0.470053,-0.159612,7.712000,21.443226

-1.077013,-1.428495,9.810658,16.565292,0.038293,0.584099,-0.024516,7.704000,21.443226

-2.233808,0.736602,9.516071,16.559410,0.242936,0.287792,-0.006396,7.704000,21.443226

-2.851722,-0.877641,10.318403,16.585880,-0.167416,0.191333,-0.305634,7.696000,21.443226

-0.660280,-0.357922,8.912526,16.579998,0.019374,0.038383,-0.283251,7.696000,11.236325

-0.863856,2.290970,9.080178,16.577057,-0.040846,0.122852,-0.118044,7.700000,11.236325

-0.114215,1.876631,9.913645,16.574116,-0.013667,0.123918,-0.017854,7.692000,11.236325

-0.588429,4.451278,8.407177,16.550587,0.085457,0.126316,0.026911,7.692000,11.236325

0.276173,3.476505,8.632309,16.571175,-0.060298,0.126849,0.182525,7.692000,11.236325

-0.145350,1.893397,8.977192,16.565292,0.006584,0.201458,0.293640,7.692000,11.236325

-1.405131,3.579490,8.414362,16.556469,0.067338,0.235033,0.291509,7.696000,11.236325

-2.535580,1.934112,9.290939,16.562351,-0.123716,0.155094,0.323218,7.700000,11.236325

-2.269733,5.521852,8.426337,16.565292,0.028967,0.236365,0.284847,7.696000,11.236325

-2.475704,4.178246,8.047924,16.577057,0.032964,0.178010,0.292042,7.704000,11.236325

-1.785939,5.809254,8.653864,16.547646,0.067604,0.255817,0.313359,7.712000,11.236325

-2.533185,2.631063,8.572433,16.550587,0.001788,0.141238,0.261132,7.712000,11.236325

-2.015861,3.105277,8.819120,16.568233,-0.041912,0.125250,0.183058,7.716000,11.236325

-4.054022,2.837034,10.090877,16.568233,-0.052571,0.256883,0.075940,7.720000,11.236325

-2.288893,2.882540,10.581855,16.547646,-0.023793,0.167351,-0.086868,7.720000,11.236325

-3.735485,1.735325,8.593988,16.568233,0.088122,0.123118,-0.188124,7.716000,11.236325

-2.861303,-0.089679,9.441826,16.541763,-0.037382,-0.056744,-0.438865,7.720000,11.236325

-1.268615,0.240833,10.383068,16.550587,-0.029921,-0.105773,-0.605404,7.716000,11.236325

0.240248,-1.038107,11.805710,16.541763,0.004719,-0.209427,-0.697334,7.712000,11.236325

0.551600,0.590506,10.263317,16.544704,0.242936,-0.221684,-0.775407,7.708000,11.236325

2.625687,-0.080099,10.895603,16.568233,0.158468,-0.244866,-0.638978,7.692000,11.236325

2.946620,-2.733781,8.620334,16.547646,0.103044,-0.278707,-0.379710,7.696000,22.829053

3.047211,2.808294,9.111313,16.547646,-0.027257,-0.071399,-0.178798,7.688000,22.829053

0.405504,2.552027,8.943662,16.559410,0.047086,-0.019705,-0.049830,7.688000,22.829053

-0.380062,2.956785,9.192744,16.571175,0.079861,-0.056477,-0.181196,7.684000,22.829053

-0.447123,3.351964,8.792775,16.532940,0.054547,-0.154535,-0.319756,7.680000,22.829053

0.534835,3.981854,9.408296,16.550587,0.026835,-0.198502,-0.197184,7.680000,22.829053

-2.111661,3.783067,9.662168,16.553528,0.054814,-0.123093,-0.085003,7.684000,22.829053

-2.645751,3.838153,8.780800,16.544704,0.073200,-0.150006,-0.106053,7.692000,22.829053

-1.103358,4.724310,9.420271,16.553528,0.049218,-0.226747,-0.080739,7.688000,22.829053

-2.499655,2.456226,8.083850,16.553528,0.006851,-0.176652,-0.138562,7.692000,22.829053

-3.416947,4.408167,8.541298,16.562351,0.079595,-0.223549,-0.221432,7.696000,22.829053

-2.997819,4.266861,9.693303,16.550587,-0.056567,-0.262186,-0.381043,7.708000,22.829053

-1.941615,3.486085,9.995075,16.556469,0.061742,-0.305620,-0.418880,7.704000,22.829053

-0.806376,4.422538,9.298124,16.529999,0.088388,-0.383693,-0.316825,7.708000,22.829053

0.333654,3.387889,9.037067,16.544704,-0.004074,-0.302422,-0.315759,7.716000,22.829053

-0.142955,2.633458,9.269384,16.562351,0.048152,-0.289365,-0.231291,7.712000,22.829053

0.862953,4.472833,9.147239,16.568233,-0.022727,-0.329335,-0.126305,7.712000,22.829053

3.087926,3.172337,8.100615,16.568233,0.093717,-0.211825,-0.028513,7.716000,22.829053

2.972965,2.884935,10.251343,16.559410,0.032165,-0.193172,0.039968,7.712000,22.829053

2.529886,0.633617,10.059741,16.550587,-0.009137,-0.042088,0.185989,7.712000,22.829053

-0.063920,0.257598,10.145962,16.544704,0.148342,-0.040490,0.284048,7.712000,22.829053

0.599501,-2.743361,9.508886,16.541763,0.021506,0.025593,0.203842,7.708000,22.829053

-0.775241,-0.698014,11.024934,16.547646,-0.178607,0.037051,0.167337,7.700000,22.829053

-2.413434,0.880304,10.320798,16.562351,0.002321,0.267541,0.122305,7.704000,22.829053

-3.357072,0.856353,9.650192,16.541763,0.088122,-0.014376,0.014388,7.700000,22.829053

-1.388366,2.092183,8.071875,16.550587,0.081993,-0.075130,-0.093796,7.700000,22.829053

0.386344,3.751932,8.761641,16.550587,0.007650,-0.070600,-0.017588,7.696000,22.829053

0.965939,2.384376,9.204719,16.550587,0.141148,-0.015975,0.094326,7.700000,22.829053

-1.556017,2.587952,8.146120,16.553528,0.011647,-0.044753,0.220097,7.704000,22.829053

1.684445,2.381981,7.868298,16.547646,-0.101333,-0.130287,0.466574,7.704000,22.829053

0.343234,5.507482,9.666958,16.535881,0.082792,0.155627,0.693068,7.704000,22.829053

0.336049,4.020175,8.261081,16.544704,0.058011,0.200925,0.845751,7.704000,22.829053

-0.861461,4.319552,9.132869,16.556469,-0.070956,0.257948,0.843352,7.708000,22.829053

-1.659003,2.837034,9.219090,16.544704,-0.105064,0.286193,0.725576,7.712000,22.829053

-1.972750,4.405772,9.434641,16.538822,0.034829,0.308043,0.500149,7.712000,22.829053

-2.473310,3.174732,9.063413,16.529999,-0.068292,0.343749,0.380507,7.716000,22.829053

-2.530790,3.704032,9.207114,16.535881,-0.051505,0.284861,0.257135,7.716000,22.829053

-3.117570,2.784344,7.731781,16.535881,0.010848,0.268340,0.072743,7.728000,22.829053

-4.255204,0.456385,7.602450,16.527058,-0.063229,0.116723,-0.162011,7.724000,22.829053

-5.591625,-0.084889,11.000983,16.512352,-0.069358,-0.035960,-0.322154,7.728000,22.829053

-6.559213,0.839588,10.950688,16.527058,-0.111992,-0.122027,-0.374914,7.724000,22.829053

-3.278036,1.919742,10.507609,16.527058,0.142746,-0.340260,-0.340274,7.720000,22.829053

-0.873436,-0.515993,9.386741,16.527058,0.155537,-0.467096,-0.172136,7.724000,22.829053

-1.043483,-2.362553,8.704160,16.553528,-0.009937,-0.470826,0.014121,7.720000,22.829053

1.224601,-0.738730,8.871811,16.532940,-0.122650,-0.457503,0.277919,7.716000,11.377723

1.979032,0.679122,10.488449,16.541763,0.011647,-0.144943,0.518801,7.712000,11.377723

1.186280,0.659962,10.486054,16.544704,0.068403,-0.132419,0.595809,7.704000,11.377723

0.654586,0.149823,9.580737,16.544704,0.071068,-0.044220,0.466841,7.704000,11.377723

-0.827931,1.234766,9.839399,16.527058,0.066005,-0.053280,0.401025,7.700000,11.377723

