ax,ay,az,gx,gy,gz,temp,volt,vel

-0.897387,1.979617,9.496911,14.450586,-0.009404,0.005875,0.001864,3.048000,0.000000

-0.962052,1.900582,9.475356,14.474117,-0.009670,0.010138,-0.003465,2.976000,0.000000

-0.885411,1.740115,9.398716,14.465292,-0.012868,0.004809,-0.010393,2.940000,0.000000

-0.832721,1.737720,9.384345,14.465292,-0.008604,0.010405,-0.006396,2.900000,0.000000

-1.005162,1.931717,9.556787,14.480000,-0.003541,0.011737,-0.001600,2.868000,0.000000

-0.952472,2.075418,9.516071,14.494705,-0.007005,0.005342,0.006394,2.828000,0.000000

-0.962052,1.766461,9.329260,14.494705,-0.017930,0.018399,0.018651,2.788000,0.000000

-1.266220,1.632339,9.535232,14.494705,-0.011002,0.016533,0.019983,2.752000,0.000000

-1.316515,1.596414,9.587922,14.500587,-0.000610,-0.001586,0.017585,2.716000,0.000000

-1.215924,1.756881,9.415481,14.500587,-0.000610,-0.007981,0.023447,2.676000,0.000000

-1.096173,1.934112,9.386741,14.500587,-0.001143,-0.005316,0.041833,2.640000,0.000000

-0.928522,1.816756,9.465776,14.518234,-0.005940,-0.011445,0.061019,2.596000,0.000000

-0.969237,1.637130,9.475356,14.515293,-0.003275,-0.003451,0.049827,2.564000,0.000000

-1.098568,1.646710,9.480146,14.509411,0.000722,-0.012777,0.034639,2.524000,0.000000

-1.062643,1.802386,9.460986,14.521175,0.002854,-0.013310,0.026378,2.492000,0.000000

-1.079408,1.938902,9.475356,14.506470,0.001788,-0.013577,0.022382,2.456000,0.000000

-1.093778,1.965247,9.437036,14.524117,0.000988,-0.019439,0.022648,2.424000,0.000000

-1.014742,1.874237,9.403505,14.529999,-0.002209,-0.019173,0.022115,2.388000,0.000000

-1.024323,1.795201,9.468171,14.527058,-0.000344,-0.020238,0.018385,2.352000,0.000000

-1.005162,1.752090,9.482541,14.529999,0.002321,-0.025568,0.015187,2.324000,0.000000

-0.954867,1.713770,9.496911,14.550587,0.004985,-0.028499,0.022648,2.288000,0.000000

-0.945287,1.744905,9.523256,14.535881,0.005252,-0.023169,0.044764,2.248000,0.000000

-1.007557,1.843101,9.465776,14.553528,0.005518,-0.027433,0.067947,2.220000,0.000000

-1.067433,1.843101,9.482541,14.535881,0.007916,-0.028232,0.082336,2.188000,0.000000

-1.182394,1.785621,9.484936,14.535881,0.008449,-0.032496,0.079404,2.152000,0.000000

-1.146469,1.771251,9.446616,14.547646,0.008982,-0.041022,0.057288,2.120000,0.000000

-1.041088,1.778436,9.425060,14.556469,0.011114,-0.046885,0.027711,2.096000,0.000000

-1.057853,1.778436,9.444221,14.562351,0.011380,-0.048483,0.001597,2.064000,0.000000

-1.031508,1.874237,9.465776,14.559410,0.008183,-0.057010,-0.014124,2.032000,0.000000

-0.818351,1.917347,9.429851,14.559410,0.012979,-0.060208,-0.013324,1.988000,0.000000

-0.746500,1.855076,9.475356,14.577057,0.014578,-0.059675,-0.001867,1.960000,0.000000

-0.586034,1.891002,9.408296,14.585880,0.014045,-0.055678,0.010924,1.924000,0.000000

-0.437543,1.967642,9.444221,14.574116,0.013779,-0.050349,0.019717,1.896000,0.000000

-0.241151,2.111343,9.441826,14.574116,0.010581,-0.042621,0.022914,1.868000,0.000000

-0.214806,2.140084,9.439431,14.585880,0.003920,-0.027166,0.019983,1.840000,0.000000

-0.303422,2.063443,9.429851,14.588821,0.002321,-0.020238,0.006660,1.816000,0.000000

-0.336952,2.051468,9.439431,14.568233,0.000988,-0.009846,-0.013591,1.784000,0.000000

-0.483048,1.967642,9.451406,14.588821,-0.006473,-0.002119,-0.023716,1.760000,0.000000

-0.679440,1.886212,9.453801,14.597647,-0.004874,-0.002385,-0.030112,1.732000,0.000000

-0.722550,1.876631,9.470566,14.594706,-0.004074,-0.001320,-0.030911,1.708000,0.000000

-0.756080,1.907767,9.501701,14.600588,-0.003275,-0.000520,-0.022384,1.680000,0.000000

-0.703390,1.986803,9.410690,14.618235,-0.003275,-0.001320,0.003996,1.644000,0.000000

-0.720155,1.950877,9.434641,14.597647,-0.006739,0.000279,0.023447,1.620000,0.000000

-0.703390,1.958062,9.458591,14.597647,-0.004074,0.003210,0.028777,1.600000,0.000000

-0.677045,1.910162,9.420271,14.594706,-0.007272,0.003210,0.022382,1.572000,0.000000

-0.602799,1.934112,9.439431,14.597647,-0.006739,0.007474,0.009858,1.548000,0.000000

-0.540529,1.986803,9.465776,14.609411,-0.008604,0.012004,-0.000534,1.528000,0.000000

-0.492628,1.989197,9.427456,14.621176,-0.013401,0.022662,-0.007729,1.484000,0.000000

-0.672255,1.938902,9.468171,14.615294,-0.013667,0.027458,-0.011459,1.460000,0.000000

-0.729735,1.917347,9.460986,14.627058,-0.014999,0.027192,-0.013591,1.432000,0.000000

-0.717760,1.883817,9.472961,14.635881,-0.015799,0.030922,-0.015190,1.408000,0.000000

-0.648305,1.941297,9.417875,14.641764,-0.016865,0.034120,-0.009061,1.380000,0.000000

-0.770451,1.886212,9.499307,14.632940,-0.018197,0.041314,-0.006396,1.352000,0.000000

-0.926127,1.819151,9.504096,14.635881,-0.018463,0.036785,-0.014124,1.328000,0.000000

-1.115333,1.725745,9.446616,14.618235,-0.014200,0.034386,-0.044234,1.304000,0.000000

-1.196764,1.819151,9.415481,14.635881,-0.011535,0.021863,-0.075677,1.280000,0.000000

-1.208739,1.917347,9.427456,14.635881,-0.011269,0.014402,-0.092997,1.264000,0.000000

-1.323700,1.914952,9.468171,14.638823,-0.013134,0.006141,-0.100458,1.244000,0.000000

-1.378785,1.823941,9.458591,14.618235,-0.013401,-0.004784,-0.107119,1.224000,0.000000

-1.469796,1.567674,9.506492,14.641764,-0.010469,-0.016241,-0.125505,1.204000,0.000000

-1.491351,1.503009,9.472961,14.635881,0.001788,-0.035427,-0.118577,1.188000,0.000000

-1.278195,1.692215,9.547207,14.641764,0.010048,-0.046085,-0.074611,1.172000,0.000000

-1.124913,1.835916,9.508886,14.641764,0.010315,-0.053813,-0.034908,1.156000,0.000000

-0.921337,1.960457,9.446616,14.656469,0.012713,-0.055411,-0.007462,1.144000,0.000000

-0.878226,2.089788,9.429851,14.662352,0.013512,-0.054878,0.003729,1.132000,0.000000

-0.866251,2.190379,9.453801,14.659410,0.011380,-0.053280,-0.011193,1.120000,0.000000

-1.110543,2.144874,9.358000,14.653528,0.011913,-0.057010,-0.035174,1.108000,0.000000

-1.117728,2.089788,9.405901,14.650587,0.012979,-0.063139,-0.075943,1.096000,0.000000

-1.290170,2.089788,9.367580,14.665293,0.019374,-0.068735,-0.120709,1.084000,0.000000

-1.522487,2.166429,9.319680,14.659410,0.021240,-0.083124,-0.168139,1.080000,0.000000

-1.670978,2.073023,9.434641,14.662352,0.028434,-0.097246,-0.227294,1.068000,0.000000

-2.300868,2.420301,9.094548,14.665293,0.081727,-0.135350,-0.322154,1.060000,0.000000

-2.662516,1.574859,9.587922,14.674116,0.029766,-0.156134,-0.385040,1.052000,0.000000

-2.557135,1.632339,9.616662,14.659410,0.041757,-0.201166,-0.396498,1.048000,0.000000

-2.978658,2.477782,9.413086,14.659410,0.166195,-0.210493,-0.426874,1.040000,0.000000

-2.993029,0.767738,8.910131,14.677057,0.104909,-0.259522,-0.415150,1.036000,0.000000

-2.164352,1.325777,9.494516,14.674116,0.095316,-0.360777,-0.345070,1.028000,0.000000

-2.161957,1.550909,9.262199,14.671175,0.129157,-0.348520,-0.357061,1.024000,0.000000

-1.476981,2.310130,9.300520,14.685881,0.221886,-0.388223,-0.260069,1.016000,0.000000

-0.344137,1.481453,9.281360,14.685881,0.127025,-0.388490,-0.126571,1.012000,0.000000

-0.794401,2.643038,10.045371,14.694704,0.218155,-0.345323,-0.098859,1.008000,0.000000

0.132472,2.707703,9.288545,14.697645,0.217090,-0.389555,-0.069815,1.004000,0.000000

1.591039,2.446646,8.438313,14.700586,0.075598,-0.363975,0.051426,1.000000,0.000000

1.164725,2.456226,9.583132,14.685881,0.125426,-0.315212,0.156146,0.992000,0.000000

1.916761,1.879027,9.130473,14.700586,0.092385,-0.262186,0.188121,0.992000,0.000000

2.077228,2.219119,9.451406,14.718235,0.048152,-0.218486,0.182792,0.988000,0.000000

1.813776,2.463411,9.355605,14.688822,0.008183,-0.121494,0.152682,0.984000,0.000000

1.466498,2.511312,9.705278,14.697645,0.052416,-0.103375,0.085800,0.984000,0.000000

0.522860,2.049073,9.104128,14.688822,0.116100,-0.096713,-0.024249,0.980000,0.000000

0.039066,1.411998,9.310100,14.691763,-0.028322,-0.054346,-0.117778,0.972000,0.000000

0.427059,2.568792,9.463381,14.712351,0.016976,-0.104441,-0.102323,0.972000,0.000000

0.139657,2.805899,9.676538,14.682940,0.017243,-0.081791,-0.110317,0.972000,0.000000

0.577946,3.572305,9.250224,14.706469,0.027635,-0.063672,-0.062354,0.968000,0.000000

0.288148,2.949600,9.075388,14.700586,0.036694,-0.064738,0.005061,0.968000,0.000000

0.106127,3.186707,8.562854,14.685881,0.019374,-0.078061,0.062084,0.964000,0.000000

1.318007,3.907608,9.367580,14.706469,-0.016865,-0.041822,0.129766,0.960000,0.000000

0.412689,2.997501,8.701765,14.718235,0.011647,0.004010,0.094859,0.960000,0.000000

0.860558,3.759117,9.585527,14.697645,0.055347,-0.047950,0.054357,0.976000,0.000000

1.248551,2.837034,8.974797,14.715292,0.014312,-0.003718,-0.019986,0.988000,0.000000

1.198256,2.602323,9.130473,14.718235,-0.135440,0.016267,-0.078874,0.996000,0.000000

1.191071,4.456068,9.937595,14.724117,-0.026191,-0.009047,-0.100991,1.376000,0.000000

0.199532,3.438184,9.860954,14.706469,-0.042978,0.106331,-0.183860,1.344000,0.000000

0.604291,3.419024,9.762758,14.718235,-0.059232,0.018665,-0.179597,1.316000,0.000000

2.350260,2.223909,9.542417,14.712351,-0.072555,0.044246,-0.142026,1.296000,0.000000

0.621056,2.008358,9.511281,14.718235,0.030033,0.101269,-0.171870,1.276000,0.000000

0.501305,2.204749,9.894485,14.718235,0.058278,0.016267,-0.211839,1.256000,0.000000

0.901273,1.823941,9.971126,14.724117,0.069203,0.063164,-0.152951,1.224000,0.000000

0.824632,0.410880,9.005932,14.730000,0.014312,0.079419,-0.102056,1.208000,0.000000

0.149237,1.522169,9.113708,14.706469,-0.146099,0.046644,-0.062620,1.192000,0.000000

0.000746,1.546119,10.112432,14.712351,-0.038182,0.042380,-0.079674,1.176000,0.000000

0.331258,1.905372,9.278965,14.721176,-0.033385,0.065030,-0.073012,1.160000,0.000000

0.051041,1.938902,9.640613,14.718235,-0.035517,0.033854,-0.080473,1.140000,0.000000

-0.152535,1.934112,9.645403,14.700586,0.018042,0.047443,-0.100191,1.132000,0.000000

0.074991,2.245465,9.044252,14.718235,-0.049373,0.039183,-0.132700,1.120000,0.000000

-0.104635,2.039493,9.322075,14.738823,-0.038182,0.019997,-0.159079,1.108000,0.000000

0.333654,2.396351,9.288545,14.727058,-0.011002,0.037318,-0.176133,1.096000,0.000000

0.103732,2.381981,9.429851,14.718235,0.007916,0.033321,-0.165208,1.088000,0.000000

0.089361,2.243070,9.106524,14.730000,-0.035783,0.030390,-0.143891,1.076000,0.000000

0.261803,2.681358,9.226274,14.732941,-0.013667,0.029057,-0.082605,1.072000,0.000000

0.606686,2.791529,9.410690,14.735882,-0.019529,0.045311,0.061019,1.060000,0.000000

0.642611,3.548355,9.899275,14.750587,0.038826,0.082616,0.224360,1.056000,0.000000

1.205441,2.015543,9.082573,14.738823,-0.127447,0.112726,0.316556,1.048000,0.000000

1.432967,2.978341,8.902946,14.721176,-0.128512,0.164420,0.325349,1.040000,0.000000

1.325192,2.863380,8.306586,14.738823,0.081727,-0.163329,0.142023,1.032000,0.000000

-0.200436,1.879027,9.173584,14.750587,-0.095205,0.112993,0.025046,1.028000,0.000000

1.030604,4.372242,9.432246,14.756470,-0.047241,-0.004784,-0.147355,1.020000,0.000000

2.695143,2.317315,8.352092,14.724117,0.076930,0.005076,-0.229692,1.016000,0.000000

0.565970,1.186866,9.025092,14.735882,0.003653,0.127382,-0.289646,1.008000,0.000000

0.553995,1.977222,9.887300,14.753529,-0.091474,0.053305,-0.318158,1.004000,0.000000

1.715580,2.295760,9.669353,14.732941,-0.122917,0.158025,-0.256605,1.000000,0.000000

-0.308212,1.888607,9.779524,14.727058,-0.069358,0.187602,-0.226494,1.000000,0.000000

-0.365692,1.498219,9.714858,14.750587,-0.061630,0.127915,-0.312828,0.992000,0.000000

-0.451913,0.202513,9.271779,14.747646,-0.009137,0.111927,-0.355462,0.988000,0.000000

-1.196764,0.267179,9.451406,14.724117,-0.056035,0.112460,-0.330148,0.984000,0.000000

-1.208739,1.411998,9.501701,14.735882,-0.046708,0.081817,-0.270727,0.984000,0.000000

-1.443451,1.742511,9.386741,14.750587,-0.018996,0.059434,-0.230225,0.976000,0.000000

-0.758475,2.590347,8.919712,14.744705,0.011913,0.064497,-0.146289,0.972000,0.000000

-0.547714,3.692056,8.737690,14.744705,-0.009404,0.046910,-0.006396,0.972000,0.000000

-2.188302,2.492151,10.193862,14.753529,-0.074154,0.117256,0.125502,0.968000,0.000000

-1.117728,1.608389,9.482541,14.753529,0.001255,-0.004251,0.195316,0.964000,0.000000

0.977914,2.858590,9.501701,14.750587,-0.017397,0.006941,0.169202,0.964000,0.000000

-0.159721,1.697005,8.910131,14.747646,-0.034718,0.073556,0.106317,0.960000,0.000000

-1.570387,1.505404,9.786709,14.777058,-0.011802,0.033854,-0.077542,0.956000,0.000000

-1.551227,2.111343,9.420271,14.762352,-0.009937,0.029857,-0.124972,0.952000,0.000000

0.101337,2.827454,9.432246,14.768234,-0.008071,0.010405,-0.009061,0.952000,0.000000

-0.188461,2.350845,9.484936,14.753529,-0.035517,0.035186,0.067414,0.948000,0.000000

-0.478258,2.025123,9.561577,14.762352,-0.041379,0.042647,0.085000,0.948000,0.000000

-1.079408,1.277877,9.839399,14.768234,-0.044044,0.049308,0.040501,0.944000,0.000000

-1.955985,0.607271,9.305309,14.756470,0.017776,-0.011712,-0.050629,0.944000,0.000000

-1.505722,1.756881,9.252620,14.765293,0.002587,-0.034627,-0.148954,0.944000,0.000000

-1.457821,2.348450,9.350815,14.771175,0.025503,-0.037292,-0.195052,0.940000,0.000000

-1.247059,2.750814,9.199929,14.779999,0.038293,-0.055678,-0.156948,0.940000,0.000000

-1.009952,2.635853,9.214299,14.765293,0.005252,-0.080459,-0.101790,0.936000,0.000000

-0.392037,2.494547,9.724438,14.785881,0.046287,-0.096447,0.018385,0.932000,0.000000

-0.926127,4.202196,9.616662,14.777058,0.105708,-0.035427,0.095126,0.932000,0.000000

-2.171537,1.050350,8.955637,14.771175,-0.038182,-0.173987,0.201178,0.932000,0.000000

1.509608,0.882698,9.207114,14.762352,-0.064561,-0.063405,0.361322,0.928000,0.000000

-0.758475,2.231094,10.280083,14.768234,0.064140,0.013336,0.288844,0.928000,0.000000

0.546810,3.414234,9.226274,14.782940,-0.007272,-0.032229,0.204109,0.924000,0.000000

-0.566874,2.657408,9.041858,14.768234,0.003920,0.005609,0.120173,0.928000,0.000000

-0.875831,2.360425,9.573552,14.785881,-0.019263,0.014668,-0.013857,0.924000,0.000000

0.364789,1.459898,9.334050,14.774117,-0.001676,-0.054612,-0.100458,0.924000,0.000000

-0.231571,1.376073,9.410690,14.765293,-0.003275,0.007740,-0.140427,0.924000,0.000000

0.146842,1.879027,9.235854,14.771175,-0.004074,-0.036226,-0.127637,0.924000,0.000000

0.252223,2.281390,9.472961,14.779999,-0.008071,-0.003451,-0.078341,0.924000,0.000000

-0.432753,2.566397,9.568762,14.777058,-0.000610,-0.002119,-0.053827,0.920000,0.000000

-0.657885,2.307735,9.379556,14.759411,-0.003009,0.013602,-0.051162,0.916000,0.000000

-1.304540,2.063443,9.365185,14.777058,-0.006206,0.010938,-0.064752,0.916000,0.000000

-1.053063,1.814361,9.369975,14.800587,0.000988,-0.020505,-0.057291,0.916000,0.000000

-0.351322,1.902977,9.403505,14.797646,0.017509,-0.021304,-0.019453,0.916000,0.000000

0.182767,2.484967,9.449011,14.818233,0.009782,-0.009580,0.049827,0.916000,0.000000

0.357604,2.712493,9.398716,14.791763,-0.004341,0.008806,0.109781,0.916000,0.000000

0.230668,2.655013,9.449011,14.785881,-0.011002,0.033854,0.099922,0.916000,0.000000

-0.006439,2.360425,9.401111,14.785881,-0.026457,0.040782,0.051426,0.916000,0.000000

-0.521369,1.948482,9.355605,14.803528,-0.031254,0.050108,-0.031177,0.912000,0.000000

-0.710575,1.771251,9.578342,14.788822,-0.016598,0.032255,-0.133499,0.912000,0.000000

-0.463888,1.773646,9.456196,14.788822,-0.011802,0.041048,-0.199315,0.912000,0.000000

-0.514183,3.442974,9.518467,14.803528,0.095316,-0.020771,-0.263533,0.908000,0.000000

-3.773805,1.433553,9.757969,14.777058,0.080927,-0.083124,-0.221965,0.908000,0.000000

-1.366810,-0.836926,8.811935,14.809410,-0.094938,-0.115632,-0.095128,0.912000,0.000000

-1.893715,-0.757890,9.468171,14.797646,-0.032319,0.044512,0.004529,0.912000,0.000000

-1.694928,2.501732,9.528047,14.797646,0.011114,-0.002119,0.044764,0.904000,0.000000

-1.203949,2.717283,9.108918,14.800587,-0.001143,-0.079659,0.085533,0.908000,0.000000

-0.751290,3.747142,9.635822,14.794704,0.024437,-0.020505,0.055156,0.908000,0.000000

1.516793,3.718402,9.336445,14.809410,-0.060831,-0.026900,0.099123,0.904000,0.000000

1.320402,2.202354,9.171188,14.815292,-0.060298,0.074622,0.157212,0.904000,0.000000

-0.001649,1.294642,9.604687,14.797646,-0.046708,0.079685,0.092195,0.904000,0.000000

-0.681835,0.959339,9.578342,14.785881,-0.035250,0.065829,-0.035441,0.904000,0.000000

-0.485443,1.134176,9.403505,14.803528,-0.014999,0.041847,-0.124439,0.904000,0.000000

-0.514183,1.831126,9.331655,14.791763,-0.006739,0.041847,-0.152418,0.900000,0.000000

-1.606312,2.092183,9.207114,14.791763,0.006851,0.034386,-0.149220,0.904000,0.000000

-0.621959,2.623878,9.178373,14.806469,-0.009137,-0.004251,-0.079407,0.904000,0.000000

-0.868646,4.353082,9.108918,14.818233,-0.001143,0.134043,0.028510,0.900000,0.000000

-0.035179,2.003568,9.774734,14.812351,-0.135440,0.029057,0.205708,0.900000,0.000000

3.293898,0.942574,8.689790,14.821175,-0.081348,0.071958,0.255270,0.900000,0.000000

-2.554740,2.362821,10.660891,14.821175,0.081727,0.238230,0.124437,0.900000,0.000000

-0.162116,2.614298,9.061018,14.800587,-0.057633,-0.033029,0.001331,0.900000,0.000000

-0.693810,2.281390,9.528047,14.812351,-0.032852,0.099936,-0.073279,0.900000,0.000000

-0.619564,1.802386,9.082573,14.821175,-0.066960,0.034120,-0.153217,0.900000,0.000000

-0.463888,1.689820,9.178373,14.812351,-0.053103,0.106864,-0.174268,0.900000,0.000000

-1.759594,1.368887,9.690907,14.812351,-0.007005,0.041581,-0.226761,0.900000,0.000000

-1.141679,1.785621,8.095824,14.812351,-0.021661,0.018665,-0.228360,0.896000,0.000000

-4.171378,3.040611,9.734018,14.812351,-0.204987,0.370929,-0.066350,0.900000,0.000000

0.376764,3.129227,10.586645,14.821175,0.076930,-0.252327,0.100988,0.900000,0.000000

1.497633,0.609666,8.938871,14.821175,-0.072022,0.247024,0.158544,0.896000,0.000000

-3.860026,2.372401,10.732741,14.806469,0.017243,-0.095114,0.085533,0.896000,0.000000

0.719252,1.656290,8.663445,14.827057,-0.057100,-0.018373,0.077806,0.896000,0.000000

-1.124913,0.116292,8.989167,14.821175,-0.025125,0.009605,0.003996,0.896000,0.000000

-1.007557,1.658685,9.120893,14.818233,-0.001410,0.069559,-0.032243,0.896000,0.000000

-3.627709,2.164034,9.762758,14.827057,-0.050705,0.155360,-0.059689,0.896000,0.000000

0.467775,3.112462,10.040581,14.815292,0.043622,-0.128422,-0.015723,0.896000,0.000000

-2.605036,1.883817,8.651469,14.809410,-0.012868,0.271005,0.063683,0.896000,0.000000

-1.460216,3.941139,10.325588,14.829998,-0.020062,-0.009313,0.232887,0.896000,0.000000

-1.711693,3.112462,9.132869,14.838821,-0.053103,0.062631,0.197447,0.896000,0.000000

-0.871041,3.725587,9.094548,14.847647,0.025769,0.006941,0.049827,0.896000,0.000000

-0.564479,3.110067,8.570039,14.853529,0.026036,-0.011712,-0.084470,0.896000,0.000000

0.374369,4.226146,8.799960,14.835880,-0.041379,-0.032229,-0.156681,0.896000,0.000000

-1.048273,3.177127,9.144843,14.850588,0.023638,0.062365,-0.294442,0.904000,0.000000

-0.904572,3.368729,8.713739,14.838821,-0.013667,0.019198,-0.484430,0.904000,0.000000

-1.220714,4.793766,9.892090,14.827057,-0.055768,0.023195,-0.659496,1.024000,0.000000

0.096547,4.278836,9.530441,14.832939,0.052416,0.046111,-0.697067,1.580000,0.000000

-0.942892,4.444093,8.965217,14.841763,0.006051,0.085014,-0.598476,2.176000,0.000000

-1.474586,3.589071,8.596384,14.827057,-0.000344,0.079685,-0.392234,2.824000,0.000000

-1.359625,2.434671,8.352092,14.835880,-0.028056,0.038383,-0.357594,3.288000,0.000000

-1.541647,4.094420,9.654983,14.835880,0.005518,0.012803,-0.278721,4.080000,0.000000

-1.579967,3.459739,8.696975,14.838821,-0.026457,0.042913,-0.193187,4.624000,0.000000

-1.927245,3.950719,9.118498,14.841763,-0.085878,0.025327,-0.162543,4.560000,0.000000

-1.742828,3.996224,9.278965,14.847647,-0.016598,0.014935,-0.174001,5.324000,0.000000

-1.852999,4.664434,8.567643,14.844706,-0.022194,0.006408,-0.197716,5.996000,0.000000

-2.267338,4.082445,8.447892,14.844706,-0.062963,-0.015442,-0.225162,5.988000,0.000000

-1.151259,2.599927,10.186677,14.829998,-0.046175,-0.034627,-0.094862,6.156000,0.000000

-1.783544,2.638248,8.558064,14.847647,-0.049906,-0.022370,0.048495,6.364000,0.000000

-1.639843,2.923255,9.032277,14.847647,-0.015799,-0.070866,0.255536,6.724000,0.000000

-1.520092,2.295760,9.410690,14.841763,0.010315,-0.025834,0.559570,6.768000,0.000000

-3.074459,3.936348,9.223879,14.841763,-0.007005,0.026659,0.783931,6.908000,0.000000

-3.510353,2.113739,9.226274,14.853529,-0.051238,-0.075663,0.829230,6.988000,0.000000

-2.492470,3.857313,9.839399,14.835880,0.077730,-0.135084,0.802584,7.104000,0.000000

0.762362,4.791370,9.307705,14.850588,0.015377,-0.050082,0.266994,7.180000,0.000000

-0.404013,5.986485,11.058464,14.850588,0.181117,0.077820,-0.229692,7.216000,0.000000

-1.534462,2.453831,7.952123,14.853529,0.298627,0.017333,-0.752225,7.228000,0.000000

-0.406408,-0.228591,9.880115,14.856470,-0.147964,-0.017307,-1.134332,7.260000,0.000000

1.694025,1.215606,9.712463,14.841763,0.109172,0.200393,-1.491925,7.244000,0.000000

1.492843,-1.145883,6.677973,14.862352,0.080661,0.159890,-1.638746,7.240000,0.000000

-0.978817,2.283785,7.173742,14.853529,0.039093,0.079685,-1.468210,7.244000,0.000000

-1.227899,1.057535,10.304033,14.853529,-0.122650,0.049841,-1.238785,7.196000,0.000000

-4.283944,1.086275,13.939672,14.859411,0.304756,-0.026101,-1.261435,7.200000,0.000000

-4.238439,-1.337485,9.949570,14.865294,0.182982,-0.146542,-1.205478,7.212000,0.000000

-7.615416,2.482572,11.872770,14.844706,0.101711,-0.086588,-0.968326,7.216000,0.000000

-1.455426,2.111343,9.075388,14.856470,0.231745,-0.347454,-0.645373,7.236000,0.000000

-3.515143,4.017779,10.392649,14.838821,0.314881,-0.298425,-0.005331,7.224000,0.000000

-3.596574,1.366493,8.840676,14.862352,0.235475,-0.367439,0.594210,7.224000,0.000000

-4.468361,0.219278,8.615544,14.847647,0.421733,-0.384493,1.457016,7.264000,0.000000

-4.343820,5.706268,11.748230,14.865294,0.170459,-0.440450,2.147686,7.252000,0.000000

-1.572782,0.535421,5.422983,14.871176,0.358315,-0.494808,2.707257,7.240000,0.000000

-7.134017,0.803663,10.363909,14.856470,0.182716,-0.434854,3.030210,7.228000,0.000000

-3.292406,0.964129,7.588080,14.856470,0.195240,-0.465764,3.154115,7.228000,0.000000

-2.049391,4.676410,8.965217,14.844706,0.120364,-0.411405,3.094161,7.220000,0.000000

0.860558,2.808294,7.877878,14.885881,0.002054,-0.349320,3.052859,7.228000,0.000000

0.077386,1.033585,6.428891,14.844706,-0.081881,-0.123359,2.973986,7.248000,0.000000

2.417320,4.321947,14.037868,14.871176,0.381763,-0.035427,2.616127,7.260000,0.000000

3.863912,3.742352,5.231381,14.862352,0.010048,0.085281,2.036038,7.272000,0.000000

3.198097,2.887330,14.174384,14.879999,0.067338,0.359204,1.113279,7.276000,2512.364632

5.767953,4.106395,8.878996,14.841763,0.104109,0.353076,0.217965,7.288000,2512.364632

5.176383,4.968602,7.607240,14.835880,0.269050,0.415694,-0.624056,7.292000,2512.364632

0.580340,3.119647,9.027488,14.856470,0.059077,0.372527,-1.073579,7.292000,2512.364632

-0.586034,4.963812,6.110353,14.859411,0.114501,0.439143,-1.247046,7.300000,2512.364632

-1.867369,3.011871,7.176137,14.859411,-0.384583,0.543863,-1.494323,7.264000,2512.364632

-0.914152,-1.663207,13.774416,14.853529,-0.345946,0.326962,-1.259569,7.272000,2512.364632

0.755177,1.474268,12.085927,14.868235,-0.198059,0.387449,-1.542020,7.284000,2512.364632

1.315612,3.584280,8.902946,14.862352,0.257059,0.177477,-1.576660,7.288000,2512.364632

1.856886,3.543565,7.734177,14.879999,-0.143434,0.045578,-1.348301,7.272000,2512.364632

-0.777636,0.784503,7.039621,14.859411,0.048952,0.108463,-1.004298,7.280000,2512.364632

-4.365375,7.320511,13.223561,14.865294,0.502471,-0.296027,-1.239052,7.288000,2512.364632

-2.274523,-2.987653,9.422666,14.856470,-0.606280,-0.046352,-1.107686,7.264000,2512.364632

2.644847,4.729100,9.190349,14.853529,0.195240,0.171348,-0.864672,7.284000,2512.364632

1.325192,4.800951,8.991562,14.844706,0.075864,-0.043154,-0.721315,7.264000,2512.364632

-0.746500,1.816756,10.581855,14.853529,-0.174344,-0.082058,-0.579557,7.280000,2512.364632

0.122892,1.682635,7.798842,14.862352,0.011913,0.226506,-0.398896,7.268000,2512.364632

-1.453031,3.783067,10.466894,14.853529,-0.095471,-0.060474,-0.290179,7.272000,2512.364632

-1.711693,0.796478,10.842913,14.865294,0.003120,-0.112967,-0.166807,7.264000,2512.364632

-4.856354,-1.347065,10.601015,14.874117,0.070802,-0.164661,-0.235554,7.268000,2512.364632

-1.524882,0.487520,10.112432,14.838821,-0.061630,-0.342125,-0.322154,7.236000,2512.364632

1.694025,0.518656,9.983100,14.844706,0.015111,-0.268848,-0.128170,7.228000,2512.364632

2.050883,0.913834,9.005932,14.862352,0.095050,-0.182514,0.224360,7.180000,2512.364632

-0.930917,1.608389,9.288545,14.865294,0.070002,-0.158266,0.996302,7.140000,2512.364632

-0.590824,-0.221405,10.411809,14.850588,-0.004874,-0.220885,1.271291,7.056000,2512.364632

0.211507,1.991592,9.760364,14.874117,0.236541,-0.209160,1.565466,7.012000,2512.364632

0.783917,0.784503,9.070598,14.871176,-0.237229,-0.212624,1.874296,6.904000,2512.364632

-1.644633,-0.046569,10.847702,14.874117,-0.026990,0.016800,2.038703,6.768000,2512.364632

-2.293683,2.540052,10.102851,14.874117,0.067071,-0.041022,1.771974,6.892000,2512.364632

-1.357230,2.825059,8.488607,14.871176,0.127558,-0.111901,1.690437,6.948000,2512.364632

-0.492628,4.429723,9.822634,14.859411,-0.041113,0.001612,1.553741,6.924000,2512.364632

1.773060,2.575977,10.955479,14.862352,0.063607,-0.038091,1.572660,7.080000,2512.364632

0.371974,1.438343,10.071716,14.879999,0.048419,0.061033,1.765313,7.060000,2512.364632

1.610199,4.460858,8.639494,14.877058,0.146210,0.053572,1.900143,7.128000,2512.364632

3.765717,2.393956,9.353210,14.888823,0.049751,0.119921,2.059753,7.116000,2512.364632

2.889139,3.308853,9.441826,14.871176,0.203766,0.216114,1.983812,7.124000,2512.364632

0.518070,3.351964,8.615544,14.882940,0.214425,0.169216,1.420510,7.148000,2512.364632

2.448456,4.329132,8.893367,14.874117,0.241071,0.192932,0.510807,7.184000,2512.364632

1.509608,9.224552,6.067243,14.894705,0.407877,0.395710,-0.507346,7.248000,2512.364632

-5.464689,7.064244,9.810658,14.882940,-0.290255,0.452200,-0.994173,7.240000,2512.364632

0.839003,0.054022,9.137658,14.882940,-0.047774,-0.125225,-1.210274,7.260000,2512.364632

-1.807494,5.596097,11.171030,14.882940,-0.033918,0.216114,-0.918764,7.272000,2512.364632

2.448456,1.982013,8.232341,14.877058,0.013246,-0.001852,-0.488427,7.268000,2512.364632

3.126246,3.471714,6.788144,14.862352,0.039093,-0.015975,-0.142825,7.260000,2512.364632

3.152592,4.525523,9.549602,14.897646,0.068137,0.101002,0.037303,7.280000,2512.364632

2.228114,3.038216,7.331813,14.882940,-0.041379,0.183605,0.200911,7.292000,2512.364632

1.806591,6.012831,9.034673,14.906469,0.093717,0.282197,0.294706,7.300000,2512.364632

1.440153,3.704032,9.437036,14.885881,-0.020329,0.320301,0.435398,7.296000,2512.364632

-0.801586,3.454949,9.274175,14.900587,0.062275,0.322965,0.736767,7.312000,2512.364632

-0.380062,5.057218,8.677814,14.891764,0.146477,0.188135,1.036271,7.324000,2512.364632

-0.437543,2.772369,8.205996,14.879999,0.064939,0.278466,1.254238,7.320000,2512.364632

-1.855394,2.185589,9.439431,14.882940,0.056146,0.262212,1.241181,7.324000,2512.364632

0.300123,3.713611,8.225156,14.897646,0.018841,0.245158,1.065582,7.332000,2512.364632

0.166002,3.735167,9.346025,14.885881,0.040425,0.375458,0.708522,7.344000,2512.364632

-2.073341,4.206986,8.912526,14.897646,0.048152,0.413563,0.413282,7.332000,2512.364632

-3.536698,3.833362,10.193862,14.897646,0.100379,0.197461,0.187855,7.336000,9.663055

-2.176327,2.690938,8.883786,14.882940,-0.003275,0.167618,-0.081539,7.344000,9.663055

-0.598009,4.171061,7.209667,14.882940,-0.138371,0.136442,-0.193986,7.340000,9.663055

-0.595614,2.228699,10.792617,14.885881,-0.070157,0.104466,-0.064485,7.340000,9.663055

0.508490,3.179522,10.890813,14.879999,0.142214,0.048509,-0.107386,7.344000,9.663055

0.565970,3.349569,8.476633,14.874117,0.051350,0.104999,0.025846,7.356000,9.663055

2.570602,1.795201,6.606122,14.879999,0.067604,-0.013310,0.190519,7.348000,9.663055

-0.265101,4.104000,5.746310,14.885881,0.032697,0.140439,0.351463,7.352000,9.663055

0.712067,1.469478,9.458591,14.897646,-0.121851,0.118322,0.518268,7.360000,9.663055

0.745597,-0.072914,11.032119,14.882940,-0.069891,0.171082,0.632581,7.356000,9.663055

2.074833,2.393956,8.514953,14.891764,0.155537,0.244625,0.612862,7.356000,9.663055

1.049764,-0.233381,8.890971,14.888823,0.010848,0.320301,0.545714,7.352000,9.663055

-0.547714,1.752090,10.883628,14.894705,0.033763,0.288858,0.369582,7.344000,9.663055

0.154027,-0.894406,11.865585,14.897646,0.178985,0.194797,0.224893,7.348000,9.663055

5.937999,0.456385,8.591594,14.897646,0.041224,0.431948,-0.335744,7.324000,9.663055

2.474801,1.488638,10.078901,14.879999,0.092918,0.653379,-0.800988,7.316000,9.663055

0.041461,0.580926,7.726991,14.900587,0.048419,0.561982,-1.184960,7.300000,9.663055

-0.447123,1.079090,8.706554,14.894705,-0.088809,0.519082,-1.477536,7.304000,9.663055

-0.245941,2.082603,9.683722,14.888823,0.065206,0.515618,-1.775174,7.304000,9.663055

-1.680558,0.537816,10.768666,14.897646,0.136351,0.436212,-1.706161,7.284000,9.663055

-1.826654,0.839588,7.118657,14.879999,0.088655,0.274203,-1.459683,7.284000,9.663055

-1.103358,3.761512,8.773615,14.882940,0.071867,0.219844,-1.082372,7.288000,9.663055

-1.136889,3.862103,10.627360,14.882940,-0.070956,0.286193,-0.793260,7.284000,9.663055

-2.712811,3.256163,10.797407,14.885881,0.075864,0.249955,-0.603006,7.300000,9.663055

-4.013307,4.386612,10.737532,14.862352,0.014844,0.137241,-0.661894,7.284000,9.663055

-3.309171,2.446646,9.851375,14.894705,-0.030454,0.065030,-0.992574,7.308000,9.663055

-1.362020,0.573741,10.236973,14.888823,0.087056,0.008540,-1.311530,7.312000,9.663055

-3.342701,6.434354,8.237131,14.856470,0.334599,0.169216,-1.325119,7.316000,9.663055

-3.809730,0.362979,8.605964,14.888823,-0.094672,-0.297626,-1.210007,7.320000,9.663055

-3.769015,2.429881,10.387858,14.877058,0.203500,-0.152404,-0.933952,7.336000,9.663055

-2.233808,7.370807,8.900552,14.868235,0.369506,-0.176918,-0.573695,7.324000,9.663055

-1.649423,1.778436,8.826305,14.862352,0.039625,-0.420731,-0.130834,7.348000,9.663055

-3.076854,6.803187,11.285991,14.879999,0.617050,-0.154535,0.166005,7.348000,9.663055

-1.306935,2.437066,8.795171,14.868235,0.265053,-0.409274,0.296571,7.356000,9.663055

-2.930758,2.403536,7.635981,14.877058,0.273313,-0.302955,0.490823,7.356000,9.663055

-0.873436,4.377032,7.516230,14.877058,0.164063,-0.317611,0.362388,7.356000,9.663055

-1.436266,3.052586,8.862231,14.888823,0.086256,-0.232076,0.189187,7.352000,9.663055

-2.229017,3.007081,9.377160,14.903528,0.085723,-0.223816,0.040235,7.348000,9.663055

-2.387089,4.092025,10.591435,14.888823,0.309286,-0.123626,-0.030911,7.360000,9.663055

-2.171537,2.619088,8.277846,14.891764,-0.026724,-0.299491,-0.103389,7.352000,9.663055

-1.395551,5.505086,8.074269,14.900587,0.129157,-0.210759,0.086865,7.352000,9.663055

-0.221991,1.946087,9.674143,14.879999,0.145944,-0.206496,0.159610,7.372000,12.403342

0.288148,4.506363,8.083850,14.874117,-0.014999,-0.072465,0.105784,7.376000,12.403342

0.072596,5.957745,7.858717,14.882940,-0.005673,-0.003984,0.039968,7.372000,12.403342

-0.085475,6.760077,6.115143,14.882940,0.056946,-0.052480,-0.205977,7.372000,12.403342

-0.238756,3.802227,9.233459,14.891764,-0.138371,-0.003718,-0.728243,7.376000,12.403342

-0.348927,1.289852,9.408296,14.888823,-0.061630,-0.119629,-1.166574,7.376000,12.403342

0.745597,2.858590,8.835886,14.879999,-0.159688,-0.095381,-1.479135,7.376000,12.403342

-0.792006,4.585399,7.506649,14.891764,-0.119986,-0.071666,-1.550280,7.372000,12.403342

-1.239874,2.156849,8.864626,14.903528,-0.033918,-0.185712,-1.497254,7.368000,12.403342

-0.614774,2.959180,8.117380,14.891764,-0.117587,-0.269647,-1.305401,7.368000,12.403342

0.316888,2.633458,9.118498,14.888823,-0.129845,-0.272578,-0.937150,7.376000,12.403342

-1.508116,1.730535,9.899275,14.894705,-0.076019,-0.287234,-0.569965,7.376000,12.403342

-1.591942,0.997660,9.743598,14.885881,-0.018463,-0.302156,-0.382641,7.376000,12.403342

-0.880621,2.233490,11.106364,14.885881,-0.091741,-0.341326,-0.257404,7.376000,12.403342

-1.165629,3.965089,11.800920,14.909410,0.013779,-0.233142,-0.154816,7.368000,12.403342

2.766993,-0.475278,8.067084,14.894705,-0.083747,-0.267782,-0.146023,7.360000,12.403342

-1.091383,-0.480068,10.007051,14.888823,-0.013134,-0.175320,0.005861,7.348000,12.403342

-0.327372,-2.269147,10.617781,14.891764,0.033230,-0.256058,-0.003732,7.324000,12.403342

-0.727340,1.043165,9.372371,14.888823,-0.052571,-0.211026,0.043432,7.320000,12.403342

0.297728,0.425250,9.774734,14.874117,-0.167949,-0.222750,0.225159,7.304000,12.403342

-2.767897,2.899305,10.658496,14.885881,-0.119453,-0.133751,0.513472,7.288000,12.403342

-1.824259,-0.731545,9.638218,14.879999,-0.112525,-0.212624,0.447123,7.260000,12.403342

-0.490233,0.125872,9.077783,14.897646,-0.154093,-0.096180,0.515870,7.256000,12.403342

-2.327213,1.950877,9.456196,14.894705,-0.067759,-0.054346,0.602470,7.248000,12.403342

-2.320028,3.112462,9.405901,14.894705,0.037494,-0.141212,0.379175,7.260000,12.403342

-1.692533,1.162916,9.815449,14.894705,-0.006206,-0.176119,0.236084,7.280000,12.403342

1.250946,4.048914,9.408296,14.903528,0.021772,-0.088453,0.231555,7.276000,12.403342

0.989889,5.002132,9.429851,14.885881,0.021506,-0.002119,0.310161,7.288000,12.403342

0.283358,3.663316,8.023974,14.903528,0.110505,0.001079,0.237950,7.308000,12.403342

-0.334557,4.396193,7.671906,14.906469,-0.054969,0.035452,0.172933,7.292000,12.403342

0.120497,2.135294,9.846584,14.918234,-0.274001,0.092209,0.236884,7.296000,12.403342

0.350419,3.138807,9.089758,14.918234,0.149941,0.259281,0.142556,7.312000,12.403342

-2.102081,4.206986,8.756850,14.912352,-0.084013,0.196129,-0.069282,7.324000,12.403342

-2.813402,2.762789,9.434641,14.897646,-0.063762,0.177743,-0.184660,7.332000,12.403342

-1.869765,4.216566,10.119617,14.909410,-0.089076,0.155360,-0.421012,7.332000,12.403342

-1.297355,5.203314,8.411967,14.888823,0.020440,0.093808,-0.401294,7.348000,12.403342

-0.363297,4.192616,7.736571,14.879999,-0.010203,0.064763,-0.348534,7.344000,12.403342

0.292938,3.567515,7.758127,14.894705,-0.025924,0.031988,-0.213971,7.352000,12.403342

0.292938,4.932677,7.772497,14.894705,0.010048,0.074622,-0.107386,7.368000,12.403342

-2.729577,4.829691,8.536509,14.900587,-0.162620,0.112460,-0.009860,7.368000,12.403342

-1.187184,3.141202,11.065649,14.888823,-0.146099,0.056236,-0.029312,7.368000,12.403342

-0.832721,2.999896,9.049043,14.906469,0.152872,0.145235,0.010924,7.388000,12.403342

-4.707863,3.093302,10.399834,14.906469,-0.078417,0.022396,0.148152,7.380000,12.328984

-2.255363,1.093460,8.273056,14.891764,0.034563,-0.119362,0.281383,7.392000,12.328984

-2.434989,2.417906,8.062294,14.897646,-0.093073,-0.004251,0.569695,7.388000,12.328984

-1.819469,3.785462,10.150752,14.879999,-0.078684,0.009073,0.675215,7.392000,12.328984

-0.969237,5.663157,8.673024,14.903528,-0.014999,0.014402,0.676280,7.400000,12.328984

0.530045,1.637130,7.853928,14.903528,-0.092273,-0.072731,0.701861,7.400000,12.328984

-0.257916,2.779554,8.500583,14.894705,-0.016598,0.136974,0.581953,7.408000,12.328984

-2.825377,2.583162,11.211745,14.882940,-0.009670,0.240628,0.342936,7.412000,12.328984

-3.342701,-2.817607,12.117063,14.897646,-0.249753,0.108463,0.081803,7.408000,12.328984

-2.576295,5.596097,10.739926,14.909410,0.160599,0.187069,-0.136697,7.416000,12.328984

-1.565597,-1.538666,9.310100,14.900587,-0.147165,-0.118829,-0.186792,7.412000,12.328984

-2.418224,3.112462,9.413086,14.894705,-0.024326,-0.003718,-0.194252,7.412000,12.328984

-3.206185,1.577254,9.810658,14.894705,0.061742,0.005342,-0.336543,7.412000,12.328984

-2.542765,-2.487094,10.668076,14.918234,0.001521,-0.234474,-0.436467,7.404000,12.328984

-2.631381,4.709940,8.237131,14.906469,0.027102,-0.245399,-0.433536,7.396000,12.328984

0.422269,-3.131354,9.108918,14.897646,-0.007538,-0.376765,-0.526265,7.404000,12.328984

-0.301027,3.725587,8.814330,14.891764,-0.070157,-0.286967,-0.490026,7.388000,12.328984

4.409977,1.126991,10.282477,14.900587,0.006851,-0.341059,-0.351732,7.384000,12.328984

3.617225,0.992869,11.393766,14.894705,0.038560,-0.166793,-0.211573,7.380000,12.328984

3.832777,3.598651,8.855046,14.918234,0.006851,-0.116431,-0.210507,7.368000,12.328984

2.656822,-1.380595,10.045371,14.897646,-0.071223,-0.035160,-0.196384,7.352000,12.328984

-0.454308,2.817874,9.839399,14.897646,-0.016865,0.116457,-0.272859,7.368000,12.328984

0.520465,3.507640,9.307705,14.906469,0.046820,0.060500,-0.405824,7.360000,12.328984

-0.696205,1.982013,8.960427,14.897646,-0.110126,0.029857,-0.401827,7.356000,12.328984

-2.396669,2.724468,7.216852,14.909410,0.269316,0.128981,-0.397563,7.368000,12.328984

-4.195329,1.790411,8.550879,14.888823,-0.268405,-0.298425,-0.279520,7.364000,12.328984

-2.257758,2.920860,7.753336,14.903528,0.093984,-0.104707,-0.171870,7.376000,12.328984

-2.336793,2.722074,9.992681,14.900587,-0.210316,-0.164927,-0.209441,7.376000,12.328984

-3.455267,4.369847,9.681328,14.903528,-0.031254,-0.199568,-0.226761,7.384000,12.328984

-1.884135,2.367611,7.923383,14.882940,0.076930,-0.291764,-0.395965,7.392000,12.328984

-1.520092,2.152059,10.598620,14.894705,-0.168215,-0.337862,-0.408755,7.384000,12.328984

-1.033903,2.880145,10.344748,14.888823,-0.004074,-0.353050,-0.171603,7.396000,12.328984

-1.057853,4.520733,8.696975,14.891764,0.113702,-0.306686,0.158810,7.392000,12.328984

-0.703390,5.212894,8.114985,14.897646,-0.014200,-0.342658,0.330146,7.400000,12.328984

0.961149,1.689820,8.352092,14.897646,-0.151961,-0.409806,0.498816,7.400000,12.328984

0.930013,6.635536,9.801079,14.900587,-0.000610,-0.204364,0.596342,7.416000,12.328984

0.405504,3.840548,9.116103,14.885881,0.060676,-0.219019,0.386369,7.416000,14.532006

-0.461493,2.817874,9.104128,14.900587,-0.015532,-0.191840,0.090329,7.424000,14.532006

-0.578849,2.513707,9.731624,14.882940,-0.005940,-0.225947,-0.180929,7.432000,14.532006

-1.879345,2.477782,9.762758,14.885881,0.200835,-0.167859,-0.237153,7.436000,14.532006

-1.366810,3.414234,9.475356,14.882940,-0.038981,-0.309883,-0.307765,7.436000,14.532006

-1.807494,5.220079,7.983259,14.897646,0.057478,-0.322140,-0.223830,7.440000,14.532006

2.225719,2.111343,10.519585,14.897646,-0.094938,-0.391687,0.187322,7.440000,14.532006

3.408859,2.913675,10.155541,14.885881,0.121163,-0.256591,0.309362,7.440000,14.532006

3.040026,3.835757,8.776011,14.912352,0.029766,-0.139081,0.436997,7.448000,14.532006

3.238812,2.307735,8.567643,14.915293,-0.072555,-0.115365,0.601671,7.444000,14.532006

3.217257,3.984249,10.610596,14.912352,0.108106,-0.020771,0.701861,7.452000,14.532006

3.655546,1.591624,8.776011,14.921175,0.127025,0.017066,0.701061,7.452000,14.532006

2.829264,-0.192665,9.875324,14.918234,-0.191664,0.179076,0.660026,7.452000,14.532006

2.319125,0.609666,11.621294,14.918234,-0.175410,0.294720,0.587548,7.448000,14.532006

3.947738,-1.102773,8.694579,14.906469,0.214425,0.345881,0.558770,7.440000,14.532006

1.847306,1.122200,10.766272,14.915293,-0.119186,0.367198,0.461778,7.440000,14.532006

-2.231412,2.602323,9.592712,14.900587,0.104109,0.583033,0.430069,7.428000,14.532006

-1.084198,-1.018947,9.547207,14.900587,-0.186335,0.459128,0.254470,7.424000,14.532006

-4.065998,2.257440,10.014235,14.921175,0.154737,0.272071,0.205441,7.432000,14.532006

-2.097291,2.271810,9.434641,14.894705,-0.023260,0.044246,0.175065,7.420000,14.532006

-1.189579,3.507640,9.314890,14.888823,-0.127713,0.012004,0.137227,7.420000,14.532006

-1.546437,-0.645324,10.014235,14.909410,0.023105,0.046644,0.220630,7.424000,14.532006

-3.297196,4.987762,10.327983,14.912352,0.201368,0.104999,0.310694,7.428000,14.532006

-1.663793,4.120765,7.976073,14.909410,0.024704,-0.008514,0.459380,7.432000,14.532006

-0.916547,1.699400,8.862231,14.915293,-0.152227,-0.130021,0.686406,7.432000,14.532006

2.817289,3.847733,9.159214,14.903528,0.027368,0.086613,0.928354,7.444000,14.532006

1.823356,5.270374,11.168635,14.912352,0.127292,0.253419,1.113012,7.440000,14.532006

1.356327,4.657249,7.307863,14.903528,0.179518,0.349079,1.115144,7.452000,14.532006

1.512003,1.328172,6.598937,14.906469,0.003653,0.297651,1.082902,7.456000,14.532006

2.101178,3.260953,10.689631,14.897646,-0.069624,0.520947,0.978449,7.464000,14.532006

0.553995,7.009159,9.487331,14.891764,0.246667,0.757832,0.673882,7.468000,17.212307

-2.229017,4.511153,5.710385,14.897646,0.088655,0.594224,0.230222,7.464000,17.212307

-2.372719,4.171061,7.156977,14.900587,-0.126647,0.620337,-0.180663,7.476000,17.212307

-1.230294,4.154295,8.347301,14.900587,0.086523,0.646184,-0.483631,7.476000,17.212307

-1.963170,3.656131,9.896879,14.897646,-0.220708,0.647517,-0.518537,7.476000,17.212307

-1.675768,3.663316,8.582014,14.882940,-0.143434,0.475115,-0.574228,7.484000,17.212307

0.391134,2.063443,9.149633,14.900587,0.062008,0.284595,-0.793793,7.488000,17.212307

-1.529672,0.734207,13.795971,14.912352,-0.215113,0.233700,-0.658164,7.488000,17.212307

-3.199000,2.825059,9.116103,14.900587,0.082792,0.191333,-0.746896,7.488000,17.212307

-2.590665,0.075577,8.850256,14.894705,-0.084013,-0.035960,-0.806050,7.488000,17.212307

-1.891320,-1.562616,9.717253,14.903528,-0.224972,0.066362,-0.751426,7.484000,17.212307

-2.909203,-0.894406,11.714700,14.894705,0.008183,0.178543,-0.706393,7.488000,17.212307

-3.143915,-1.749428,9.063413,14.894705,0.262921,-0.056477,-0.757554,7.488000,17.212307

-3.637289,-2.817607,10.761481,14.906469,-0.015532,-0.241935,-0.794059,7.476000,17.212307

-2.997819,1.344937,9.848979,14.879999,-0.047774,-0.344790,-0.727444,7.472000,17.212307

2.036512,-0.302836,9.408296,14.894705,-0.148497,-0.553163,-0.679747,7.464000,17.212307

2.683168,-0.288466,10.368698,14.909410,0.368174,-0.205963,-0.646439,7.456000,17.212307

-0.231571,0.825218,10.090877,14.877058,0.250397,-0.247797,-0.547315,7.456000,17.212307

-0.142955,3.486085,9.841794,14.900587,0.055613,-0.241935,-0.317625,7.460000,17.212307

-1.328490,4.815321,7.873087,14.897646,0.133420,-0.203032,-0.259536,7.464000,17.212307

-0.231571,2.300550,8.912526,14.882940,-0.069891,-0.276842,-0.283784,7.456000,17.212307

-0.562084,3.452554,7.904223,14.897646,0.376967,-0.114833,-0.197716,7.472000,17.212307

-3.807335,2.599927,8.368856,14.888823,0.031099,-0.167059,-0.224096,7.472000,17.212307

-3.682794,4.080050,8.684999,14.885881,-0.146632,-0.240603,-0.238752,7.468000,17.212307

-1.639843,1.198841,10.931528,14.874117,-0.122117,-0.293629,-0.226228,7.468000,17.212307

-1.864974,-0.853691,10.356724,14.897646,0.128624,-0.296826,-0.236087,7.472000,17.212307

-0.449518,4.705150,7.470724,14.897646,0.153405,-0.381295,-0.076743,7.484000,18.905288

-0.624354,2.712493,7.367738,14.912352,0.002854,-0.400480,-0.018920,7.476000,18.905288

-0.746500,1.752090,10.601015,14.900587,0.081727,-0.392220,0.132431,7.484000,18.905288

-0.600404,6.733731,9.051437,14.903528,0.020707,-0.401546,0.234486,7.484000,18.905288

1.224601,2.578372,6.996511,14.909410,0.133953,-0.389289,0.278185,7.492000,18.905288

0.913248,5.512271,8.737690,14.903528,0.139282,-0.322940,0.332810,7.492000,18.905288

0.405504,6.954073,8.804750,14.885881,0.016976,-0.252860,0.224893,7.492000,18.905288

1.092875,2.128109,10.524375,14.912352,-0.176476,-0.245133,0.185989,7.496000,18.905288

2.932250,1.258717,10.895603,14.903528,-0.062430,-0.095114,0.250207,7.504000,18.905288

2.479591,3.471714,8.488607,14.900587,0.200835,0.081017,0.146287,7.504000,18.905288

1.959872,5.687108,6.891129,14.891764,0.033230,-0.004251,-0.074078,7.512000,18.905288

2.747833,-0.587843,9.506492,14.894705,-0.266540,-0.024768,-0.063419,7.504000,18.905288

1.028209,1.189261,13.549284,14.888823,0.090253,0.234766,-0.092464,7.512000,18.905288

2.438876,2.360425,8.673024,14.888823,0.201102,0.138040,-0.301637,7.516000,18.905288

1.327587,0.616851,9.494516,14.909410,-0.237495,0.135909,-0.320023,7.508000,18.905288

1.509608,0.616851,9.144843,14.894705,0.107307,0.130046,-0.159346,7.500000,18.905288

0.539625,-1.682367,10.917158,14.903528,-0.232433,0.215314,-0.202513,7.504000,18.905288

-1.330885,-2.269147,11.647639,14.885881,-0.051238,0.328295,-0.175067,7.496000,18.905288

-0.839906,2.415511,8.280241,14.897646,0.010581,0.327229,-0.234488,7.504000,18.905288

-0.533344,0.930599,7.851532,14.888823,0.068936,0.155893,-0.297373,7.492000,18.905288

-1.105753,0.468360,11.958991,14.882940,0.003387,0.145501,-0.297107,7.492000,18.905288

-1.505722,1.809571,10.064531,14.906469,0.100112,0.141771,-0.318690,7.492000,18.905288

-0.866251,2.511312,6.361830,14.897646,0.067338,0.123118,-0.270994,7.496000,18.905288

-2.094896,0.473150,8.423943,14.897646,-0.201790,0.023461,-0.096194,7.484000,18.905288

-2.490075,1.191656,10.684841,14.894705,-0.106396,0.072757,0.030109,7.488000,18.905288

-3.196605,-0.029804,9.980705,14.903528,0.133953,-0.039157,0.018385,7.488000,18.905288

-0.945287,5.296720,8.867022,14.909410,0.152872,-0.080725,0.330412,7.500000,18.905288

0.278568,4.482413,10.057346,14.906469,0.084391,-0.082324,0.739965,7.504000,19.831360

0.115707,1.330567,9.314890,14.903528,-0.035783,-0.020238,1.010691,7.500000,19.831360

-0.430358,4.630904,7.133027,14.900587,0.198704,0.132178,1.128734,7.512000,19.831360

1.100060,3.167547,8.450288,14.894705,-0.017397,0.197728,1.108749,7.512000,19.831360

0.769547,4.072865,8.943662,14.897646,-0.011269,0.349612,1.204942,7.516000,19.831360

-2.600245,4.206986,7.233617,14.879999,0.037227,0.490304,1.065049,7.524000,19.831360

-3.117570,3.047796,8.194020,14.888823,0.008982,0.382653,0.729839,7.520000,19.831360

-3.155890,2.159244,11.238091,14.912352,0.065472,0.444739,0.391699,7.532000,19.831360

-4.595297,1.783226,8.773615,14.900587,-0.009137,0.533737,0.230489,7.532000,19.831360

-6.084999,2.944810,6.790539,14.906469,-0.165284,0.534004,-0.007729,7.532000,19.831360

-3.867211,1.967642,9.377160,14.882940,-0.277731,0.432481,-0.338142,7.528000,19.831360

-4.238439,0.377349,9.674143,14.882940,0.065206,0.101801,-0.574761,7.532000,19.831360

-7.577096,-0.101654,11.539863,14.897646,-0.253483,0.062099,-0.559040,7.524000,19.831360

-4.185749,-2.381713,11.503938,14.894705,-0.261477,-0.231277,-0.688274,7.524000,19.831360

-1.041088,0.073182,9.367580,14.897646,0.079328,-0.300557,-0.692271,7.516000,19.831360

0.364789,-2.463144,7.451564,14.888823,0.198171,-0.471093,-0.676017,7.516000,19.831360

1.054554,-0.566288,12.081138,14.897646,-0.323296,-0.241402,-0.430338,7.512000,19.831360

1.385067,0.717442,12.105087,14.894705,0.017509,-0.365574,-0.257671,7.504000,19.831360

1.387462,0.367769,8.239526,14.906469,0.113969,-0.270713,-0.291778,7.500000,19.831360

1.895206,1.526959,6.883945,14.891764,0.165396,-0.331733,-0.211839,7.496000,19.831360

-1.220714,2.676568,7.204877,14.894705,-0.124515,-0.232076,-0.268063,7.492000,19.831360

-2.760712,2.044283,9.583132,14.894705,-0.124782,-0.234208,-0.351998,7.496000,19.831360

-1.390761,2.535262,9.233459,14.891764,0.028701,-0.296826,-0.429272,7.496000,19.831360

1.056949,-0.377082,10.739926,14.906469,0.061475,-0.317078,-0.406357,7.500000,19.831360

-0.523764,5.205709,11.008168,14.888823,0.200302,-0.165727,-0.344271,7.508000,19.831360

0.494120,2.925650,7.183322,14.885881,0.000455,-0.281905,-0.421811,7.508000,19.954559

-0.154930,5.481136,7.667116,14.888823,0.035895,-0.215289,-0.380243,7.512000,19.954559

0.027091,3.090906,8.455077,14.903528,0.231745,-0.330667,-0.248877,7.512000,19.954559

-0.796796,2.135294,10.996194,14.894705,-0.061364,-0.491344,-0.210240,7.520000,19.954559

-0.430358,0.940179,11.252460,14.906469,0.026569,-0.371969,-0.069548,7.520000,19.954559

-0.133375,5.327855,5.885221,14.900587,0.284238,-0.281105,0.184391,7.520000,19.954559

-1.946405,3.941139,5.844506,14.903528,0.152339,-0.367439,0.356792,7.524000,19.954559

-2.176327,6.216407,8.498188,14.891764,-0.029388,-0.535843,0.414081,7.524000,19.954559

3.940553,4.132740,9.647798,14.900587,-0.050439,-0.424195,0.540918,7.532000,19.954559

2.934645,3.466924,8.807145,14.891764,0.120364,-0.207828,0.650967,7.536000,19.954559

0.225878,6.484649,6.649232,14.900587,0.325007,-0.173454,0.575558,7.540000,19.954559

2.038908,1.249136,7.027646,14.882940,-0.062696,-0.233941,0.482029,7.544000,19.954559

1.955082,5.014107,10.095666,14.900587,-0.115722,0.004543,0.693601,7.544000,19.954559

4.074674,2.164034,12.002102,14.900587,-0.211649,0.077287,0.832694,7.544000,19.954559

2.788548,0.341424,11.683564,14.882940,0.014312,0.252086,0.888118,7.544000,19.954559

1.332377,-1.275214,7.049201,14.909410,0.240272,0.255017,0.752755,7.548000,19.954559

1.159935,0.281549,9.034673,14.891764,-0.336886,0.346680,0.668819,7.540000,19.954559

3.291502,4.032149,10.742321,14.894705,-0.273734,0.533737,0.620590,7.536000,19.954559

0.122892,-2.302677,12.299084,14.888823,-0.089609,0.615541,0.403423,7.540000,19.954559

0.086966,-5.291662,12.677497,14.900587,0.007650,0.584898,0.167870,7.528000,19.954559

-4.168983,0.039652,11.515913,14.888823,0.201635,0.598488,0.020783,7.528000,19.954559

-0.238756,0.494705,7.439589,14.900587,-0.070956,0.374659,-0.232623,7.528000,19.954559

2.323915,2.604717,9.336445,14.915293,-0.073888,0.357339,-0.118844,7.516000,19.954559

-0.787216,3.356754,10.797407,14.894705,-0.043244,0.483642,-0.210773,7.524000,19.954559

-2.952313,3.189102,7.434799,14.891764,0.139815,0.455664,-0.325885,7.524000,19.954559

-2.305658,3.299273,9.841794,14.882940,-0.014466,0.103400,-0.459916,7.524000,20.684013

0.510885,2.389166,7.952123,14.891764,0.083592,0.098870,-0.426341,7.524000,20.684013

-0.085475,3.145992,9.381950,14.906469,-0.103998,0.063964,-0.310963,7.536000,20.684013

-0.451913,4.477623,7.873087,14.906469,-0.138638,0.190800,-0.042635,7.532000,20.684013

-0.624354,3.047796,7.516230,14.903528,-0.067759,0.200925,0.181460,7.540000,20.684013

0.170792,3.141202,10.792617,14.903528,-0.115189,0.352809,0.329080,7.536000,20.684013

3.408859,2.614298,13.022380,14.909410,0.173656,0.301382,0.501481,7.552000,20.684013

-0.499813,6.714571,8.000024,14.903528,0.193374,0.483376,0.440728,7.552000,20.684013

-4.628827,4.882381,6.392965,14.894705,-0.336620,0.340019,0.077539,7.552000,20.684013

-2.099686,-0.894406,8.543694,14.882940,-0.272669,0.271005,-0.300837,7.544000,20.684013

-1.821864,1.809571,11.154264,14.900587,-0.080016,0.367198,-0.523600,7.556000,20.684013

-3.258876,2.075418,11.683564,14.894705,-0.078151,0.366132,-0.573962,7.560000,20.684013

-3.294801,0.250413,11.369817,14.912352,0.036961,0.104466,-0.578491,7.560000,20.684013

-4.015702,3.469320,7.365344,14.874117,0.174455,0.017333,-0.578225,7.560000,20.684013

-2.051786,-0.226196,7.439589,14.903528,-0.107462,-0.171323,-0.748494,7.564000,20.684013

-2.595455,-6.235299,12.938555,14.888823,-0.195128,-0.255258,-0.570498,7.556000,20.684013

-2.880463,-0.178295,10.718371,14.891764,0.092652,0.017333,-0.371184,7.556000,20.684013

-1.702113,2.386771,9.379556,14.894705,0.252529,-0.295761,-0.427940,7.552000,20.684013

-0.902177,-5.090480,9.568762,14.888823,0.262388,-0.468162,-0.645640,7.556000,20.684013

-0.384852,1.572464,8.658654,14.900587,0.180851,-0.433788,-0.650436,7.548000,20.684013

0.494120,4.171061,7.070756,14.894705,-0.135174,-0.444980,-0.407156,7.536000,20.684013

3.128641,-1.584172,10.155541,14.882940,0.027102,-0.541439,-0.357061,7.532000,20.684013

3.186122,-1.914684,11.077624,14.885881,0.183515,-0.237405,-0.301370,7.544000,20.684013

-1.024323,4.889566,10.471684,14.894705,0.210428,-0.056477,-0.138828,7.536000,20.684013

-1.577572,5.854759,5.707990,14.879999,0.176587,-0.160664,-0.017588,7.544000,20.684013

-1.333280,3.704032,6.740243,14.903528,-0.089875,-0.170523,-0.187857,7.536000,21.183842

-1.738038,3.342384,9.698093,14.882940,-0.001943,-0.110836,-0.414084,7.544000,21.183842

-1.179999,0.597691,12.344589,14.879999,-0.150362,-0.116431,-0.537190,7.544000,21.183842

-1.249454,0.853958,10.704001,14.871176,0.269316,-0.153736,-0.687741,7.552000,21.183842

-2.672096,3.641761,8.912526,14.900587,0.257059,-0.134551,-0.824170,7.552000,21.183842

-4.413275,3.287298,8.850256,14.897646,0.155004,-0.423130,-0.805517,7.552000,21.183842

-1.659003,1.922137,8.684999,14.891764,0.068936,-0.586471,-0.787664,7.552000,21.183842

-1.266220,4.580609,10.512400,14.903528,0.234676,-0.537442,-0.502550,7.560000,21.183842

-2.363138,2.104158,10.045371,14.885881,0.136085,-0.563022,-0.143092,7.564000,21.183842

0.082176,2.604717,8.682605,14.882940,0.215491,-0.582208,0.254470,7.568000,21.183842

2.007772,8.915594,6.208549,14.897646,0.522456,-0.511595,0.672816,7.576000,21.183842

1.861676,5.375755,6.357040,14.877058,-0.147964,-0.498805,0.860939,7.568000,21.183842

2.881954,0.875513,10.454919,14.879999,-0.193796,-0.304554,0.995769,7.568000,21.183842

3.420834,0.667147,7.259963,14.879999,0.156336,-0.158799,0.972054,7.576000,21.183842

-0.521369,2.918465,7.818002,14.874117,0.177920,0.150031,0.842287,7.584000,21.183842

-0.930917,0.355794,10.957873,14.891764,-0.137839,0.068227,0.581953,7.584000,21.183842

0.640216,-1.624887,10.993798,14.879999,-0.000610,0.116457,0.529726,7.576000,21.183842

1.095270,-1.112353,9.666958,14.868235,-0.102133,0.134843,0.519068,7.568000,21.183842

-0.641119,0.418065,7.161767,14.882940,-0.088010,0.435945,0.342137,7.572000,21.183842

-2.679281,0.897069,14.682129,14.891764,-0.119986,0.204390,0.347732,7.560000,21.183842

0.894088,-1.531481,12.998430,14.882940,-0.047774,0.201991,0.177729,7.560000,21.183842

0.827027,2.259835,8.306586,14.888823,0.069736,0.390114,-0.008528,7.560000,21.183842

1.540743,0.808453,9.187954,14.871176,-0.062963,0.260880,0.142556,7.556000,21.183842

2.695143,2.487362,7.985653,14.871176,0.096382,0.306711,0.261398,7.556000,21.792717

-1.139284,2.267020,7.612031,14.877058,0.020707,0.357605,0.119107,7.552000,21.792717

-1.886530,3.979459,8.510163,14.865294,-0.023526,0.237164,-0.066084,7.556000,21.792717

1.023419,1.725745,9.729228,14.874117,-0.019263,0.185204,-0.099658,7.560000,21.792717

-0.648305,5.260795,7.343788,14.871176,0.025769,0.337354,-0.051162,7.564000,21.792717

-1.615892,4.738680,9.089758,14.874117,-0.028056,0.307244,-0.030645,7.556000,21.792717

-0.430358,3.016661,10.871653,14.882940,-0.063229,0.290457,-0.031177,7.556000,21.792717

-0.763265,2.542447,11.408137,14.874117,-0.205254,0.323498,0.074075,7.568000,21.792717

-0.952472,1.004844,10.723162,14.865294,-0.001410,0.328295,0.085267,7.576000,21.792717

-0.739315,5.054823,8.229946,14.868235,0.273580,0.421023,0.041833,7.584000,21.792717

-2.403854,5.414076,6.706713,14.871176,-0.064561,0.321367,0.099656,7.576000,21.792717

-3.752250,2.544842,9.985496,14.891764,-0.267339,0.215581,0.170268,7.576000,21.792717

-1.932035,1.148546,10.287268,14.871176,0.056413,0.101801,0.156679,7.580000,21.792717

-2.190697,1.134176,11.271621,14.865294,0.032165,0.098870,0.039435,7.580000,21.792717

-6.688544,1.931717,10.682446,14.871176,-0.044577,0.136175,0.033573,7.584000,21.792717

-6.798715,-0.559103,9.087363,14.871176,-0.085079,-0.019705,-0.259269,7.584000,21.792717

-6.635853,2.489757,9.614267,14.868235,-0.074154,-0.079127,-0.400761,7.584000,21.792717

-3.311566,2.566397,12.112272,14.865294,0.180051,-0.317877,-0.574228,7.584000,21.792717

-2.138007,-5.552719,12.421230,14.879999,0.039625,-0.503601,-0.596344,7.588000,21.792717

-5.383258,4.166270,8.692184,14.879999,0.312217,-0.108437,-0.568632,7.588000,21.792717

-0.358507,0.310289,6.460026,14.868235,-0.058166,-0.757806,-0.465245,7.580000,21.792717

2.297570,0.736602,7.861113,14.868235,-0.279863,-0.540373,-0.263000,7.576000,21.792717

2.862794,-1.730268,11.839240,14.874117,0.084125,-0.399947,-0.140161,7.572000,21.792717

2.843634,1.428763,13.489408,14.888823,-0.100534,-0.372235,-0.185992,7.568000,21.792717

1.531163,0.992869,10.083691,14.862352,0.243736,-0.282171,0.069545,7.568000,21.792717

-1.675768,2.578372,8.847861,14.865294,0.123295,-0.180116,0.293107,7.564000,21.792717

-0.226781,4.106395,7.990444,14.862352,0.169393,-0.216621,0.434865,7.568000,21.792717

1.643729,0.418065,9.092153,14.853529,-0.232966,-0.225414,0.583818,7.560000,21.792717

1.071320,3.905213,8.086245,14.844706,0.052682,-0.064205,0.720247,7.564000,21.792717

-0.080685,3.696846,8.213181,14.868235,0.027635,0.051174,0.661892,7.564000,21.792717

-1.726063,3.989039,9.868139,14.865294,0.184315,0.060766,0.412483,7.576000,21.792717

-0.411198,3.100487,10.323193,14.850588,-0.106129,0.076221,0.192918,7.580000,21.792717

0.192347,0.772528,7.619215,14.859411,-0.183937,0.031722,0.064483,7.576000,21.792717

-1.371600,6.142161,6.982141,14.850588,0.101978,0.259814,-0.101257,7.576000,21.792717

-2.135612,0.870723,8.756850,14.847647,0.146743,0.115391,-0.405024,7.580000,21.792717

-1.144074,1.543724,10.222602,14.865294,-0.029122,-0.010379,-0.504681,7.592000,21.792717

0.992284,6.645116,9.595107,14.844706,0.039625,0.144702,-0.420746,7.588000,21.792717

-0.293842,4.235726,8.541298,14.871176,-0.042978,0.074089,-0.486828,7.592000,21.792717

1.576669,2.482572,8.737690,14.874117,-0.074953,-0.029298,-0.432470,7.588000,21.792717

1.555114,-0.903986,9.839399,14.859411,-0.025391,0.059700,-0.385306,7.592000,21.792717

3.059186,1.033585,9.365185,14.871176,-0.096537,0.126849,-0.500951,7.592000,21.792717

4.556073,4.599769,8.778405,14.853529,-0.120785,0.231036,-0.719450,7.592000,21.792717

1.820961,0.580926,12.323034,14.847647,-0.121051,0.202258,-0.717318,7.588000,21.792717

0.743202,-0.487253,11.647639,14.853529,-0.053903,0.190001,-0.692004,7.584000,21.792717

-0.741710,-2.599660,9.760364,14.859411,0.050284,0.133510,-0.740767,7.584000,21.792717

-0.183671,-1.239289,9.264594,14.862352,-0.094139,0.088478,-0.727977,7.580000,21.792717

-1.069828,3.126832,6.218129,14.850588,0.381230,0.030922,-0.604338,7.576000,21.792717

-0.883016,0.916229,7.863508,14.847647,0.020973,-0.123093,-0.580357,7.576000,10.872784

-2.432594,0.676727,11.810500,14.850588,-0.203388,-0.095114,-0.429539,7.580000,10.872784

-0.966842,-0.151950,11.925461,14.874117,-0.038714,-0.094048,-0.118311,7.576000,10.872784

-1.855394,1.332962,9.597502,14.856470,0.041224,-0.083923,0.070878,7.572000,10.872784

-1.797914,-0.025014,8.423943,14.841763,0.102777,-0.046885,0.173999,7.572000,10.872784

-3.484008,4.535103,7.513834,14.871176,0.015910,-0.018373,0.385303,7.568000,10.872784

-1.761989,2.144874,11.463223,14.862352,-0.030987,-0.199834,0.567297,7.568000,10.872784

-0.332162,1.153336,12.131433,14.859411,0.026302,-0.073531,0.696798,7.572000,10.872784

0.297728,5.584122,7.722201,14.847647,0.206697,0.114059,0.660026,7.576000,10.872784

0.666561,5.246424,6.922265,14.850588,0.035096,0.121520,0.562501,7.580000,10.872784

-3.153495,5.126673,9.010722,14.868235,-0.149829,0.255284,0.467640,7.584000,10.872784

-4.006122,-1.308744,11.508728,14.856470,-0.039514,0.221710,0.451919,7.588000,10.872784

-2.964288,-0.477673,10.026211,14.868235,0.127025,0.152429,0.439662,7.596000,10.872784

-4.291129,2.844219,8.397597,14.865294,-0.000610,0.387449,0.376244,7.596000,10.872784

-3.139125,4.300392,8.943662,14.850588,-0.078684,0.363468,0.233153,7.600000,10.872784

-1.144074,4.822506,7.703041,14.865294,0.226149,0.289125,0.223028,7.596000,10.872784

-3.740275,1.277877,9.734018,14.856470,-0.188733,0.128181,0.196648,7.596000,10.872784

-4.794084,1.826336,9.108918,14.838821,-0.067759,0.130046,0.099656,7.596000,10.872784

-3.048114,0.662357,7.818002,14.853529,0.028701,-0.026101,-0.221432,7.608000,10.872784

-2.997819,4.104000,9.401111,14.853529,-0.002476,-0.073264,-0.248078,7.600000,10.872784

-5.835917,0.789293,11.508728,14.862352,-0.118120,-0.125225,-0.392767,7.600000,10.872784

-2.887648,-0.264516,9.422666,14.850588,0.121696,-0.366906,-0.475903,7.600000,10.872784

-1.306935,0.336634,8.620334,14.850588,0.346590,-0.451908,-0.440464,7.596000,10.872784

-1.898505,-1.325510,9.331655,14.844706,-0.042711,-0.511329,-0.302703,7.584000,10.872784

1.895206,1.107830,9.913645,14.847647,-0.097070,-0.412471,-0.072746,7.588000,21.686560

1.368302,0.202513,9.889694,14.850588,-0.062696,-0.442581,0.259000,7.576000,21.686560

1.526373,2.777159,8.146120,14.841763,0.044688,-0.190508,0.348265,7.580000,21.686560

0.534835,2.037098,6.979745,14.850588,0.073200,-0.159865,0.496418,7.580000,21.686560

-0.504603,3.629786,10.363909,14.850588,0.122762,-0.192373,0.648035,7.572000,21.686560

-0.777636,0.202513,9.451406,14.841763,-0.141303,-0.039424,0.483628,7.576000,21.686560

-0.588429,5.402101,9.837004,14.856470,0.111037,0.035985,0.361855,7.584000,21.686560

0.498910,3.727982,8.043135,14.859411,0.018042,-0.008248,0.213169,7.584000,21.686560

-1.896110,1.021610,7.401269,14.850588,0.038293,-0.003718,-0.024782,7.592000,21.686560

-1.867369,2.853800,11.307546,14.868235,0.027368,0.089811,-0.156681,7.588000,21.686560

0.336049,0.827613,11.003379,14.853529,-0.179407,-0.067935,-0.253141,7.592000,21.686560

-0.198041,-0.317206,8.890971,14.838821,0.103576,0.054638,-0.361324,7.588000,21.686560

-1.385971,7.629469,5.717570,14.844706,0.179252,-0.058609,-0.499352,7.596000,21.686560

-1.112938,2.372401,12.883469,14.844706,-0.095737,-0.146009,-0.569965,7.592000,21.686560

0.604291,2.707703,11.056069,14.859411,0.068137,-0.136150,-0.325619,7.596000,21.686560

2.041302,7.356437,6.864784,14.868235,0.233344,-0.227813,-0.181462,7.604000,21.686560

4.158500,5.109908,6.579777,14.841763,0.097981,-0.389555,-0.042369,7.608000,21.686560

2.881954,2.482572,10.917158,14.856470,-0.161820,-0.041822,-0.005064,7.604000,21.686560

3.030446,6.170902,10.706396,14.853529,-0.011002,-0.043154,-0.283517,7.604000,21.686560

5.162013,-0.293256,9.451406,14.838821,0.083059,-0.036759,-0.263533,7.604000,21.686560

2.563417,-1.675182,11.307546,14.844706,-0.062696,0.087945,0.032241,7.604000,21.686560

1.423388,-0.166320,11.362632,14.853529,0.072933,0.180141,0.107383,7.608000,21.686560

2.012562,0.564161,13.017590,14.832939,-0.165551,0.280864,-0.036240,7.596000,21.686560

2.264039,-1.107563,11.156660,14.859411,0.100112,0.386117,0.128167,7.600000,21.686560

2.132313,0.391720,7.870693,14.835880,-0.083747,0.306178,0.355993,7.592000,21.686560

-2.051786,3.119647,6.795329,14.850588,0.365509,0.630197,0.274988,7.592000,21.686560

-5.498219,3.306458,8.835886,14.841763,-0.211382,0.216380,0.017052,7.588000,21.686560

-4.715048,-0.853691,6.555827,14.847647,-0.212448,0.143370,-0.194252,7.580000,21.686560

-3.225345,-1.404545,12.909814,14.847647,-0.208451,-0.089252,-0.245147,7.584000,21.686560

-0.166906,1.759276,12.799644,14.847647,0.250930,0.085281,-0.233156,7.588000,21.686560

-1.702113,2.154454,10.423784,14.847647,0.068403,-0.026367,-0.257937,7.588000,21.686560

-1.800309,6.199642,8.495793,14.847647,0.056413,-0.080459,-0.015456,7.584000,21.686560

-0.360902,1.189261,8.146120,14.847647,0.001521,-0.178784,0.359457,7.584000,21.686560

0.592316,1.031190,5.901987,14.847647,0.189111,-0.075663,0.651233,7.588000,21.686560

-0.621959,7.215130,9.374765,14.832939,-0.050439,0.096206,0.840954,7.592000,21.686560

1.605409,-1.117143,11.563813,14.841763,-0.052571,0.082350,0.912633,7.592000,21.686560

-0.128585,2.743629,11.985336,14.838821,0.160067,0.289391,0.898510,7.596000,21.686560

-1.306935,5.641603,7.825187,14.841763,-0.003009,0.379455,0.590213,7.596000,21.686560

-3.680399,3.328013,7.930568,14.859411,-0.122117,0.385850,0.261931,7.600000,21.686560

-1.879345,-0.192665,10.538745,14.841763,-0.108261,0.359471,0.212902,7.600000,21.686560

0.951569,3.591465,10.236973,14.835880,0.388425,0.420224,0.195316,7.612000,21.686560

-1.294960,4.937467,3.420746,14.832939,0.311417,0.402638,0.021316,7.616000,21.686560

-5.280272,4.975787,7.401269,14.827057,-0.355005,0.169749,-0.050629,7.608000,21.686560

-2.401459,0.947364,9.911250,14.838821,-0.351009,0.322965,-0.144957,7.608000,21.686560

-4.243229,-1.682367,11.197375,14.829998,-0.179940,0.195330,-0.284583,7.608000,21.686560

-1.445846,1.258717,9.015512,14.821175,0.239472,0.048775,-0.344804,7.608000,21.686560

-1.754804,-0.664484,9.118498,14.844706,-0.018996,0.038650,-0.342139,7.612000,21.686560

-3.170260,-2.408058,12.660732,14.827057,-0.088010,0.046377,-0.428473,7.612000,21.686560

-3.294801,4.408167,9.216694,14.829998,0.299160,-0.011445,-0.559839,7.608000,21.686560

-0.289052,-2.065571,10.914762,14.829998,-0.254816,-0.343457,-0.650969,7.596000,10.724163

0.970729,-1.627282,10.100456,14.812351,-0.244956,-0.160398,-0.732507,7.588000,10.724163

1.660494,-2.400873,11.527888,14.818233,-0.001676,-0.065537,-0.822304,7.584000,10.724163

0.683326,0.853958,9.980705,14.829998,0.082259,0.053305,-0.842289,7.584000,10.724163

-1.601522,1.732930,9.259805,14.832939,0.089188,-0.030897,-0.785000,7.576000,10.724163

-1.567992,1.347332,9.187954,14.815292,0.048685,-0.158266,-0.727977,7.580000,10.724163

-0.344137,-1.229709,10.220207,14.815292,-0.107728,-0.231543,-0.607536,7.572000,10.724163

0.683326,6.554105,5.772655,14.827057,0.446780,-0.054612,-0.338942,7.576000,10.724163

-2.849328,0.849168,7.437194,14.832939,-0.099468,-0.151871,-0.140161,7.584000,10.724163

-2.183512,1.986803,9.288545,14.829998,0.156336,-0.274710,-0.178798,7.580000,10.724163

-2.037416,4.616534,11.012959,14.815292,-0.004874,-0.218220,-0.322421,7.580000,10.724163

0.532440,0.944969,11.563813,14.818233,0.046820,-0.287234,-0.343738,7.584000,10.724163

-2.727181,2.480176,8.653864,14.832939,0.192575,-0.153736,-0.146556,7.588000,10.724163

-2.322423,4.944652,8.136540,14.838821,0.093184,-0.358379,-0.129236,7.584000,10.724163

-1.603917,3.574700,8.886181,14.821175,-0.093339,-0.394618,-0.317625,7.584000,10.724163

-1.354835,2.726864,8.167675,14.838821,0.068137,-0.292030,-0.455386,7.592000,10.724163

-2.257758,7.425892,12.684682,14.847647,0.001521,-0.359712,-0.427674,7.592000,10.724163

0.968334,2.702913,10.189072,14.835880,0.161932,-0.498272,-0.413018,7.600000,10.724163

0.379159,1.189261,9.690907,14.838821,-0.038714,-0.388223,-0.207842,7.604000,10.724163

-0.001649,4.633299,10.234577,14.827057,0.153139,-0.426594,0.104452,7.604000,10.724163

0.331258,4.973392,9.262199,14.818233,-0.013401,-0.371702,0.472437,7.604000,10.724163

2.201769,0.480335,8.747270,14.835880,0.172324,-0.444180,0.661625,7.608000,10.724163

1.004259,0.394115,9.269384,14.809410,0.087056,-0.298425,0.889717,7.608000,10.724163

0.965939,2.983131,7.214457,14.824116,0.161399,-0.265384,0.944608,7.608000,10.724163

2.074833,1.170101,6.730663,14.829998,-0.068558,-0.192640,0.934483,7.596000,10.724163

2.010167,-5.365907,13.398398,14.812351,-0.388047,-0.202232,1.075175,7.592000,20.246383

0.225878,-3.574433,13.290623,14.818233,0.020973,0.176944,1.082103,7.600000,20.246383

1.964662,1.708980,9.290939,14.832939,0.341527,0.256883,0.962728,7.604000,20.246383

3.219652,3.311248,3.962021,14.832939,0.178186,0.230769,1.023748,7.592000,20.246383

-0.784821,-1.550641,12.699053,14.829998,-0.126914,0.322166,1.053058,7.592000,20.246383

-1.484166,0.932994,13.585210,14.829998,0.262388,0.452200,0.837490,7.592000,20.246383

-1.582362,2.439461,8.591594,14.835880,0.097448,0.443140,0.420210,7.588000,20.246383

-0.090265,1.773646,4.721242,14.838821,-0.061630,0.342151,0.269126,7.580000,20.246383

-2.286498,-0.568683,8.881392,14.829998,-0.063229,0.292056,0.267261,7.580000,20.246383

-0.734525,0.542606,11.245275,14.841763,-0.026457,0.284861,0.068480,7.576000,20.246383

-0.178881,2.628668,10.141171,14.829998,0.069736,0.373060,-0.270994,7.580000,20.246383

-0.090265,1.716165,10.466894,14.841763,-0.229235,0.253685,-0.377845,7.576000,20.246383

0.015116,-0.345946,8.014394,14.838821,0.012713,0.279265,-0.539055,7.576000,20.246383

-1.316515,1.577254,10.517190,14.844706,0.266652,0.222509,-0.740234,7.576000,20.246383

-2.818192,4.398587,8.787985,14.827057,-0.039514,0.315504,-0.883324,7.572000,20.246383

-1.321305,2.166429,8.047924,14.818233,-0.113857,0.182273,-0.877462,7.576000,20.246383

0.853373,2.358031,10.543535,14.824116,-0.127180,0.137507,-0.760752,7.564000,20.246383

0.980309,0.391720,9.686118,14.821175,-0.047508,0.141504,-0.792994,7.572000,20.246383

-0.559689,0.267179,9.391530,14.838821,0.056146,0.128981,-0.849750,7.572000,20.246383

-1.402736,3.665711,10.203442,14.829998,0.037760,0.053572,-0.825502,7.568000,20.246383

0.221088,-1.644047,9.631032,14.827057,-0.118387,-0.091650,-0.732507,7.568000,20.246383

-1.476981,0.657567,10.019026,14.803528,-0.200724,0.022662,-0.614730,7.556000,20.246383

-0.818351,2.786739,5.942702,14.809410,0.032431,0.039183,-0.507346,7.560000,20.246383

0.158817,-2.544574,8.570039,14.824116,-0.088276,-0.286701,-0.338409,7.552000,20.246383

-0.976422,1.629945,12.672708,14.809410,0.158201,-0.031430,-0.198516,7.560000,20.246383

-0.964447,1.081485,10.435759,14.815292,-0.045110,-0.164128,-0.100991,7.556000,20.246383

-0.344137,2.453831,9.599897,14.821175,0.054547,-0.104707,0.055689,7.548000,20.246383

0.072596,-0.860876,9.187954,14.818233,0.064406,-0.136150,0.044231,7.548000,20.246383

0.985099,1.239557,8.376042,14.827057,0.103843,-0.179316,0.079138,7.536000,20.246383

0.886903,0.657567,9.405901,14.824116,0.000988,-0.159865,0.108715,7.532000,18.269400

-0.538134,0.018096,10.608200,14.818233,-0.102932,-0.080459,0.113512,7.532000,18.269400

-0.593219,2.154454,8.931686,14.818233,-0.020329,-0.059675,0.123371,7.528000,18.269400

0.496515,3.313643,6.716293,14.829998,-0.042711,-0.057543,0.273123,7.516000,18.269400

1.765875,0.904254,6.052873,14.812351,-0.110393,-0.084456,0.408752,7.524000,18.269400

-0.485443,3.428604,9.863349,14.838821,-0.039247,0.124184,0.378908,7.512000,18.269400

-0.387247,2.769974,9.779524,14.809410,-0.280929,0.029590,0.208372,7.508000,18.269400

1.603014,1.344937,8.014394,14.785881,-0.111192,0.062898,0.090596,7.500000,18.269400

0.884508,4.365057,10.699211,14.812351,-0.336087,0.188668,0.042633,7.500000,18.269400

0.288148,-0.444142,8.196416,14.824116,-0.401103,0.183872,-0.061021,7.512000,18.269400

0.592316,1.780831,7.911408,14.821175,-0.202589,0.224641,-0.215836,7.508000,18.269400

-0.600404,0.406090,10.234577,14.827057,-0.326494,0.301115,-0.362124,7.512000,18.269400

-6.190380,2.674173,8.059899,14.815292,0.063874,0.217979,-0.337343,7.516000,18.269400

-7.203473,6.649906,7.624006,14.812351,-0.197526,0.231569,-0.367453,7.524000,18.269400

-7.361544,4.563844,11.673985,14.809410,-0.481042,-0.037825,-0.423410,7.520000,18.269400

-2.940338,2.784344,11.602134,14.809410,-0.202056,-0.324538,-0.384507,7.544000,18.269400

-1.845814,3.910003,10.392649,14.812351,-0.312638,-0.348520,-0.175067,7.540000,18.269400

-2.437384,-0.087284,10.471684,14.812351,-0.143434,-0.474290,0.039702,7.540000,18.269400

-2.504445,-1.014157,9.669353,14.812351,-0.195927,-0.444980,0.203043,7.532000,18.269400

-1.259035,2.820269,7.226432,14.803528,-0.078950,-0.488679,0.411683,7.544000,18.269400

-0.521369,0.334239,7.839557,14.803528,-0.270803,-0.568085,0.576623,7.544000,18.269400

-0.241151,1.586834,11.357841,14.803528,-0.153560,-0.306153,0.629117,7.552000,18.269400

0.817447,0.513866,10.172307,14.800587,0.125160,-0.390888,0.701861,7.544000,18.269400

1.995797,0.822823,6.814489,14.827057,-0.058699,-0.432456,0.711187,7.552000,18.269400

0.659376,1.079090,8.742480,14.800587,-0.018463,-0.267516,0.660293,7.560000,18.269400

0.800682,0.691097,13.666640,14.809410,0.010048,-0.169990,0.549444,7.556000,18.269400

2.525096,3.193892,11.142290,14.806469,0.261855,-0.137482,0.415947,7.556000,18.269400

0.949174,-1.277609,7.358159,14.818233,0.135286,-0.045819,0.389567,7.560000,18.269400

0.604291,-0.537548,13.884587,14.824116,-0.024326,0.096472,0.239815,7.564000,18.269400

-0.962052,0.566556,15.870058,14.803528,0.306887,0.186270,-0.004531,7.568000,18.269400

-0.626749,0.322264,9.882509,14.809410,0.564557,0.033054,-0.275524,7.564000,18.269400

-1.088988,-1.196178,6.764194,14.824116,0.164596,-0.016508,-0.395432,7.568000,18.269400

-2.708021,0.552186,10.052556,14.791763,0.205365,-0.047950,-0.291778,7.564000,18.269400

-0.123795,-0.065729,12.481106,14.815292,0.261589,-0.052214,-0.138295,7.556000,18.269400

-1.469796,-0.530363,11.511123,14.809410,0.191243,-0.129488,-0.135364,7.564000,18.269400

0.580340,0.305499,10.737532,14.818233,0.254128,-0.124425,-0.037040,7.556000,18.269400

1.878441,2.750814,6.857599,14.812351,0.515527,-0.080725,0.136960,7.556000,18.269400

-0.480653,3.301668,7.906618,14.812351,0.153938,-0.034894,0.297637,7.564000,18.269400

-0.119005,1.816756,8.205996,14.809410,0.317546,-0.095647,0.375178,7.568000,18.269400

0.879718,5.100328,10.409413,14.815292,0.093451,0.049308,0.216366,7.568000,18.269400

1.473683,1.713770,11.635664,14.815292,0.318079,0.047976,0.067680,7.568000,18.269400

0.434244,6.752892,9.001143,14.806469,0.483818,0.279798,-0.102589,7.580000,18.269400

-2.878068,2.458621,7.588080,14.800587,0.484884,0.163354,-0.375980,7.580000,18.269400

-1.826654,4.408167,8.148515,14.818233,-0.258013,0.126849,-0.368253,7.592000,18.269400

1.253341,12.807501,7.992838,14.818233,0.550700,0.146567,-0.502816,7.596000,18.269400

-0.059130,6.676251,7.758127,14.797646,0.121696,-0.233142,-0.687474,7.596000,18.269400

0.532440,3.586675,10.229787,14.818233,-0.042711,-0.205430,-0.707726,7.592000,18.269400

0.786312,1.320987,11.985336,14.827057,-0.040846,-0.098312,-0.661361,7.600000,18.269400

0.721647,8.393480,11.848821,14.818233,-0.062430,-0.011978,-0.528396,7.612000,18.269400

4.754859,0.221673,18.293818,14.812351,-0.103998,-0.080459,-0.377579,7.616000,18.269400

3.442389,-0.717175,15.781443,14.806469,0.381497,0.082350,-0.224363,7.616000,18.269400

-0.210016,0.372559,11.190190,14.818233,0.615451,-0.111635,-0.127370,7.612000,18.269400

3.942948,-0.345946,6.040898,14.815292,0.401748,-0.091384,0.039702,7.612000,18.269400

1.432967,0.408485,9.140054,14.815292,0.168593,0.079152,0.305098,7.604000,18.269400

-1.194369,0.712652,11.590158,14.818233,0.312483,-0.004251,0.643772,7.600000,18.269400

-3.225345,-0.925541,10.430969,14.803528,0.472627,0.065296,0.570228,7.588000,18.269400

-4.561767,-3.627123,11.068044,14.809410,0.096116,-0.033029,0.605668,7.576000,18.269400

-0.047155,0.164193,9.523256,14.809410,0.352186,0.042913,0.850813,7.572000,18.269400

3.334613,1.977222,5.181086,14.806469,0.573350,0.110328,1.132997,7.572000,9.013671

-0.071105,1.680240,9.583132,14.815292,0.154737,0.196396,1.311260,7.564000,9.013671

-1.855394,3.759117,9.041858,14.815292,0.307420,0.338154,1.101288,7.564000,9.013671

0.676141,5.040452,10.031001,14.815292,0.218155,0.276867,0.761016,7.564000,9.013671

2.297570,6.094261,6.445656,14.794704,0.468097,0.345615,0.387435,7.568000,9.013671

-1.065038,3.227422,10.929133,14.827057,-0.068558,0.367465,0.148152,7.572000,9.013671

-2.159562,8.077337,12.380515,14.829998,0.117433,0.442607,0.010391,7.568000,9.013671

-0.770451,4.185431,10.057346,14.797646,0.054547,0.211850,-0.141759,7.560000,9.013671

0.254618,2.159244,6.819279,14.806469,0.110505,0.090077,-0.200115,7.560000,9.013671

-0.518973,4.659645,7.748547,14.821175,-0.193263,0.221443,-0.069282,7.560000,9.013671

0.048646,4.410563,8.316167,14.806469,0.076131,0.322965,-0.059689,7.564000,9.013671

-1.402736,5.485926,7.619215,14.815292,0.042024,0.225707,-0.063419,7.560000,9.013671

0.034276,4.592584,7.607240,14.818233,-0.287324,0.096472,0.166538,7.556000,9.013671

-0.473468,7.555223,4.572751,14.824116,-0.226571,0.338420,0.428470,7.560000,9.013671

-2.959498,6.309813,3.787184,14.821175,-0.275067,0.292322,0.451120,7.556000,9.013671

-2.200277,5.857154,5.655300,14.800587,-0.505557,0.274469,0.446856,7.556000,9.013671

-1.615892,0.382139,14.239050,14.803528,-0.667033,0.301115,0.530792,7.568000,9.013671

-0.030389,1.560489,11.894326,14.824116,-0.023260,0.308310,0.427671,7.572000,9.013671

-3.824100,3.706426,9.755573,14.818233,-0.381119,0.362668,0.032507,7.572000,9.013671

-1.795519,2.307735,8.091035,14.824116,-0.364865,0.111927,-0.401027,7.568000,9.013671

0.419874,1.859866,9.880115,14.832939,-0.367529,0.035452,-0.527864,7.572000,9.013671

-0.679440,4.032149,9.978311,14.812351,-0.001943,0.009872,-0.631517,7.568000,9.013671

-6.314921,0.870723,9.310100,14.812351,-0.316901,-0.079127,-0.777539,7.568000,9.013671

-3.553463,-2.127841,9.901670,14.827057,-0.520745,-0.350918,-0.777539,7.552000,9.013671

1.816171,-2.982863,11.039304,14.850588,-0.408831,-0.269914,-0.634449,7.556000,9.013671

1.425782,-0.053754,10.409413,14.829998,-0.153293,-0.086588,-0.386105,7.548000,9.013671

2.946620,0.401300,6.733058,14.818233,-0.116788,-0.198235,-0.219566,7.548000,9.013671

3.085531,-2.705041,9.592712,14.818233,-0.520745,-0.209160,-0.055958,7.524000,9.013671

7.777374,3.337594,9.020303,14.838821,-0.155692,0.032788,-0.095661,7.524000,9.013671

-0.542924,-0.453722,7.652746,14.821175,0.025503,0.277933,0.005328,7.536000,17.363464

-3.100805,2.827454,7.604846,14.815292,0.062541,0.301915,-0.235554,7.544000,17.363464

-1.800309,3.076536,8.543694,14.821175,-0.059765,0.192132,-0.390102,7.540000,17.363464

-2.135612,5.675133,9.832214,14.818233,0.227748,0.304313,-0.505214,7.548000,17.363464

-6.568793,0.360584,10.090877,14.815292,-0.218577,0.184405,-0.531327,7.548000,17.363464

-3.931876,1.646710,9.662168,14.821175,0.091319,-0.127090,-0.696534,7.560000,17.363464

-3.388207,2.554422,8.491003,14.815292,0.009782,-0.134551,-0.853481,7.552000,17.363464

-2.399064,-1.385385,9.334050,14.832939,0.000988,-0.362643,-0.828167,7.560000,17.363464

-3.476823,1.902977,10.636941,14.824116,0.120897,-0.144676,-0.788464,7.564000,17.363464

-4.339030,3.979459,10.375883,14.856470,0.257059,-0.394352,-0.792727,7.560000,17.363464

0.000746,3.818992,5.372687,14.815292,0.147276,-0.575013,-0.670687,7.564000,17.363464

0.039066,4.765025,6.656418,14.827057,0.128357,-0.406609,-0.495622,7.564000,17.363464

0.448614,2.731653,10.735136,14.829998,-0.062696,-0.431123,-0.415949,7.576000,17.363464

0.841398,3.675291,12.018867,14.827057,0.113436,-0.308551,-0.390369,7.576000,17.363464

1.030604,7.006763,7.070756,14.827057,-0.058966,-0.543571,0.059153,7.588000,17.363464

1.047369,2.954390,12.411650,14.838821,-0.020329,-0.241136,0.251806,7.584000,17.363464

0.949174,4.836876,9.736413,14.838821,0.332201,-0.352517,0.334942,7.584000,17.363464

2.002982,6.091866,3.198009,14.815292,0.519791,-0.297892,0.293907,7.592000,17.363464

-0.923732,1.771251,8.249105,14.815292,-0.493299,-0.261387,0.278452,7.588000,17.363464

-0.437543,2.578372,13.544495,14.812351,-0.157290,-0.042621,0.145487,7.592000,17.363464

0.403109,1.218001,10.555510,14.818233,0.151007,0.020264,-0.116179,7.596000,17.363464

0.949174,5.837994,10.133986,14.821175,0.029233,-0.098845,-0.083671,7.604000,17.363464

1.169515,2.971155,7.937753,14.824116,0.010048,-0.114833,0.159077,7.604000,17.363464

1.349142,-0.324391,10.284873,14.809410,-0.087477,-0.153470,0.046097,7.596000,17.363464

0.324073,-3.732504,8.277846,14.838821,0.124893,-0.134284,0.251273,7.596000,17.363464

1.294056,1.811966,9.003537,14.812351,-0.024059,-0.090584,0.285913,7.596000,17.363464

0.498910,3.292088,9.690907,14.809410,-0.136506,0.144169,0.293907,7.588000,17.363464

1.329982,-1.081218,11.630874,14.815292,-0.013933,-0.091917,0.410884,7.576000,17.363464

1.883231,0.065997,10.747111,14.812351,0.037227,-0.099378,0.475901,7.576000,17.363464

1.262921,1.184471,8.814330,14.827057,0.260789,0.008540,0.616326,7.572000,17.363464

1.071320,1.385653,8.148515,14.824116,-0.056301,0.023461,0.607800,7.572000,17.363464

0.479750,-1.172228,10.723162,14.815292,-0.196993,0.086347,0.542783,7.564000,17.363464

-1.158444,2.013148,9.449011,14.815292,0.124893,0.211850,0.434599,7.572000,17.363464

0.072596,4.848851,7.293493,14.812351,0.139282,0.198794,0.232354,7.580000,17.363464

1.420992,3.962693,8.438313,14.815292,-0.052038,0.186270,0.041300,7.576000,17.363464

1.270106,2.108948,10.112432,14.818233,-0.243624,0.188668,0.025846,7.568000,17.363464

1.011444,0.219278,11.319521,14.829998,0.020707,0.200659,0.002397,7.576000,17.363464

-0.492628,6.192457,10.869258,14.824116,0.237874,0.326163,-0.050363,7.588000,17.363464

-1.888925,5.842784,7.070756,14.824116,0.025237,0.251287,0.120440,7.588000,17.363464

-1.841024,4.118370,9.769943,14.815292,-0.226038,0.231569,0.295772,7.588000,17.363464

-1.179999,3.727982,9.985496,14.812351,-0.000344,0.253952,0.433533,7.596000,17.363464

-2.607430,2.513707,8.414362,14.821175,0.254661,0.251553,0.371181,7.612000,17.363464

-4.494706,5.394916,7.367738,14.791763,0.056946,0.199860,0.257401,7.616000,17.363464

-5.692215,3.112462,9.652588,14.821175,-0.186335,0.124984,0.287245,7.616000,17.363464

-3.934271,1.194051,9.554392,14.818233,-0.223639,-0.028765,0.233686,7.616000,17.363464

-0.633934,1.218001,10.747111,14.800587,-0.135973,-0.007448,0.199313,7.616000,17.363464

-3.596574,1.773646,7.736571,14.812351,0.087855,0.078886,0.324017,7.620000,17.363464

-1.141679,1.766461,8.383227,14.824116,0.026569,-0.094848,0.243279,7.612000,17.363464

-1.790729,3.874078,14.179174,14.800587,0.054547,0.010405,0.098323,7.624000,17.363464

-0.250731,-1.375805,11.482383,14.803528,-0.105597,-0.153736,0.042633,7.616000,17.363464

2.273619,-1.193783,7.085126,14.803528,0.061742,0.054105,-0.095395,7.620000,17.363464

-0.238756,1.249136,5.755890,14.803528,0.139549,0.204656,-0.320023,7.616000,17.363464

-2.770292,-1.129118,7.343788,14.815292,-0.005140,0.086613,-0.533726,7.616000,9.940582

-0.871041,2.683753,7.523415,14.803528,0.068936,-0.048217,-0.755689,7.612000,9.940582

5.796693,-0.882431,13.966018,14.797646,-0.109860,-0.003718,-0.937683,7.604000,9.940582

2.747833,-3.253500,12.636782,14.797646,0.139016,0.118322,-0.765015,7.600000,9.940582

-0.375272,4.190221,6.833649,14.803528,0.368440,0.247290,-0.460981,7.600000,9.940582

-2.820587,3.641761,4.280559,14.821175,-0.060831,-0.139081,-0.359193,7.600000,9.940582

-0.444728,1.229976,9.959150,14.824116,-0.174610,-0.080725,-0.471373,7.600000,9.940582

0.625846,0.806058,11.985336,14.800587,0.086789,-0.061274,-0.555043,7.596000,9.940582

-0.396827,3.967484,10.095666,14.803528,-0.054436,-0.038624,-0.417015,7.596000,9.940582

-2.930758,4.343502,9.171188,14.821175,-0.050972,-0.009580,-0.265664,7.600000,9.940582

-0.732130,4.422538,10.531560,14.803528,-0.003808,-0.128156,-0.164142,7.600000,9.940582

0.331258,2.889725,9.590317,14.803528,-0.000344,-0.112168,-0.093796,7.608000,9.940582

-1.168024,4.104000,7.909013,14.824116,-0.076819,-0.053280,-0.007729,7.604000,9.940582

0.553995,3.229818,10.074111,14.815292,-0.011269,-0.050615,0.051959,7.608000,9.940582

-0.490233,-1.268029,11.681170,14.815292,-0.049107,-0.188643,0.056755,7.604000,9.940582

-2.044601,1.941297,8.890971,14.791763,0.164596,-0.048217,0.050893,7.616000,9.940582

-1.915270,6.784027,6.460026,14.797646,0.048152,0.012803,0.155346,7.616000,9.940582

-0.162116,4.429723,6.606122,14.803528,-0.248953,-0.141745,0.119107,7.616000,9.940582

1.691630,-3.883390,11.214140,14.797646,-0.026724,-0.158799,-0.166007,7.612000,9.940582

-0.875831,2.116133,11.764995,14.815292,0.070002,-0.004517,-0.184660,7.612000,9.940582

-0.289052,1.218001,9.494516,14.803528,-0.080283,0.007740,-0.075410,7.616000,9.940582

-1.443451,1.057535,10.720766,14.803528,-0.065361,-0.013310,-0.010393,7.616000,9.940582

-1.742828,0.420460,9.765154,14.803528,0.118765,-0.026633,0.294440,7.616000,9.940582

-4.128268,1.831126,8.574828,14.809410,-0.020595,0.017599,0.287512,7.612000,9.940582

-2.058971,1.716165,10.450130,14.800587,-0.056834,-0.208894,0.492954,7.612000,21.032586

1.552718,1.431158,10.342353,14.824116,0.055613,-0.118030,0.758617,7.616000,21.032586

-0.835116,3.399864,9.698093,14.794704,-0.007272,0.107664,0.849748,7.616000,21.032586

-2.803822,4.314762,10.483660,14.791763,0.093984,0.120987,0.601671,7.620000,21.032586

-0.317792,1.632339,7.353368,14.800587,0.078795,-0.239803,0.361588,7.612000,21.032586

1.279686,1.435948,9.065807,14.794704,-0.234831,-0.175320,0.107117,7.608000,21.032586

2.113153,0.722232,11.729070,14.779999,0.058811,0.146834,0.102853,7.608000,21.032586

-1.436266,4.678805,9.738809,14.803528,-0.019263,0.185204,0.013855,7.608000,21.032586

-1.146469,3.529195,9.724438,14.800587,-0.045643,0.077287,-0.160412,7.612000,21.032586

-1.122518,1.819151,8.189230,14.800587,-0.016332,0.102068,-0.162810,7.612000,21.032586

-1.306935,4.072865,10.907578,14.809410,-0.227903,0.034919,-0.188124,7.612000,21.032586

1.243761,-0.872851,12.861914,14.800587,-0.040580,-0.050615,-0.187591,7.616000,21.032586

-0.756080,3.282508,10.718371,14.797646,-0.025125,-0.083124,-0.050629,7.616000,21.032586

-0.746500,5.720638,6.850414,14.791763,0.223751,-0.041555,0.018651,7.620000,21.032586

-0.844696,1.438343,9.872930,14.803528,-0.086678,-0.197169,0.062351,7.620000,21.032586

-0.375272,3.007081,9.238249,14.794704,0.216557,-0.066603,0.340271,7.620000,21.032586

-3.294801,-1.931449,9.501701,14.812351,-0.127180,-0.080459,0.440994,7.620000,21.032586

-3.390602,0.659962,9.563972,14.779999,-0.102399,-0.066070,0.563300,7.616000,21.032586

-1.172814,-0.836926,11.333891,14.809410,-0.250286,-0.205963,0.650167,7.620000,21.032586

2.685563,5.926610,10.007051,14.809410,0.205898,-0.065537,0.712519,7.624000,21.032586

-0.770451,1.589229,7.786867,14.812351,0.253328,-0.079926,0.665356,7.624000,21.032586

-2.631381,2.592742,8.855046,14.782940,-0.095737,-0.176652,0.477499,7.616000,21.032586

0.939593,1.076695,8.632309,14.800587,0.163797,-0.018640,0.464176,7.624000,21.032586

0.872533,-2.496674,13.273857,14.794704,-0.143701,-0.010379,0.410617,7.620000,21.032586

1.188675,8.431800,6.376200,14.797646,0.540841,0.100203,0.281117,7.624000,21.032586

-2.619406,-1.759008,8.922107,14.809410,-0.527140,0.047177,-0.282718,7.620000,21.513991

0.709672,2.192774,13.249907,14.809410,0.109172,0.142037,-0.374115,7.624000,21.513991

0.309703,0.262388,9.832214,14.821175,0.067071,0.081284,-0.236886,7.616000,21.513991

1.928736,3.007081,10.488449,14.797646,0.114501,-0.048750,-0.339475,7.616000,21.513991

1.768270,2.808294,6.927055,14.785881,0.247200,0.016267,-0.277122,7.616000,21.513991

-2.578690,0.940179,8.057505,14.785881,-0.174610,0.174279,-0.273925,7.612000,21.513991

-1.249454,5.732613,9.698093,14.806469,0.009249,0.017866,-0.181729,7.616000,21.513991

0.815052,2.211934,9.137658,14.785881,0.063874,0.010405,0.261132,7.624000,21.513991

-0.909362,1.155731,7.247987,14.809410,-0.166883,-0.158266,0.376777,7.616000,21.513991

2.098783,0.133057,13.194821,14.779999,0.035895,-0.010646,0.625386,7.620000,21.513991

0.074991,1.388048,10.047766,14.806469,0.194440,0.078886,0.843086,7.620000,21.513991

-1.225504,6.163717,6.227709,14.809410,0.153139,0.098870,0.659493,7.628000,21.513991

0.230668,3.129227,8.014394,14.803528,-0.243358,0.092209,0.478032,7.616000,21.513991

-0.322582,5.361385,13.319363,14.815292,-0.265208,0.306445,0.454584,7.620000,21.513991

3.950133,2.477782,13.599580,14.815292,0.477690,0.055437,0.498816,7.624000,21.513991

0.374369,-3.890575,8.558064,14.806469,0.117965,0.245158,0.539852,7.624000,21.513991

0.134867,5.241634,5.078100,14.803528,-0.172212,0.575039,0.079138,7.620000,21.513991

2.972965,0.580926,11.341076,14.797646,-0.324629,0.511621,-0.311762,7.620000,21.513991

0.558785,1.481453,11.901511,14.812351,0.010581,0.577171,-0.298706,7.616000,21.513991

-0.722550,0.571346,8.720924,14.800587,0.006051,0.514019,-0.487628,7.616000,21.513991

0.388739,4.669225,6.630073,14.779999,-0.229768,0.512687,-0.798056,7.616000,21.513991

-0.847091,-1.639257,8.692184,14.794704,-0.029655,0.516417,-0.844687,7.612000,21.513991

-2.703231,2.755604,9.008327,14.803528,0.030299,0.401305,-0.961664,7.616000,21.513991

-1.484166,1.258717,11.729070,14.797646,-0.067759,0.120187,-0.888121,7.624000,21.513991

0.173187,0.319869,10.433364,14.791763,-0.194861,0.328295,-0.712788,7.624000,21.244384

-0.281867,4.005804,4.876918,14.803528,0.069203,0.151097,-0.419946,7.624000,21.244384

-1.048273,3.780672,9.374765,14.791763,-0.253750,0.043446,-0.363723,7.620000,21.244384

-0.231571,-0.333971,17.441191,14.782940,0.343659,0.213716,-0.093263,7.620000,21.244384

-1.153654,2.257440,10.989009,14.800587,0.164863,-0.022104,0.079138,7.628000,21.244384

0.249828,3.670501,6.345065,14.797646,-0.055235,0.102068,-0.191321,7.624000,21.244384

-1.680558,3.421419,7.334208,14.794704,0.105975,0.169749,-0.655499,7.624000,21.244384

-0.784821,0.695887,8.411967,14.806469,-0.152227,-0.003451,-0.823637,7.624000,21.244384

1.092875,2.118529,9.425060,14.812351,-0.240427,0.034120,-0.747695,7.624000,21.244384

-0.650700,0.396510,11.630874,14.806469,-0.228436,0.150831,-0.305634,7.620000,21.244384

-2.102081,1.649105,14.660573,14.803528,0.138217,0.138573,-0.189723,7.624000,21.244384

-1.148864,2.336475,8.732900,14.803528,0.212560,-0.047151,-0.227827,7.632000,21.244384

-4.240834,8.577896,2.953717,14.791763,0.346057,0.005875,-0.505481,7.624000,21.244384

-2.751132,-0.187875,8.886181,14.806469,-0.164218,-0.129222,-0.618194,7.628000,21.244384

-1.673373,-0.525573,12.251184,14.800587,-0.045909,-0.168125,-0.366121,7.632000,21.244384

-1.869765,2.643038,10.098062,14.809410,0.175521,-0.043954,-0.183061,7.636000,21.244384

-3.107990,6.199642,7.003695,14.803528,0.196039,-0.054878,-0.380776,7.644000,21.244384

-3.840866,1.479059,7.626400,14.818233,-0.101600,-0.191840,-0.616329,7.636000,21.244384

-0.906967,-2.372133,11.046489,14.821175,-0.023793,-0.194238,-0.487095,7.636000,21.244384

-3.826495,-1.093193,8.361671,14.806469,0.025503,-0.202765,-0.500151,7.628000,21.244384

-4.058813,0.851563,6.261240,14.809410,0.104642,-0.397016,-0.686409,7.632000,21.244384

-1.424291,0.322264,9.983100,14.803528,-0.388846,-0.613384,-0.660295,7.632000,21.244384

1.701210,0.238438,17.764519,14.794704,0.152073,-0.215555,-0.348801,7.632000,21.244384

0.788707,4.381822,10.078901,14.779999,0.297561,-0.407408,-0.243814,7.636000,21.244384

0.570760,2.482572,6.074428,14.782940,0.236275,-0.553963,-0.372782,7.636000,21.995872

2.374210,1.361702,8.512558,14.800587,0.207230,-0.686927,-0.375181,7.636000,21.995872

-0.051945,1.989197,11.803315,14.824116,0.099313,-0.418067,-0.037306,7.628000,21.995872

-1.539252,0.556976,11.408137,14.800587,0.335399,-0.365840,0.308562,7.636000,21.995872

-4.159403,0.968919,9.523256,14.791763,0.227748,-0.431656,0.555573,7.632000,21.995872

-1.256639,1.723350,8.103010,14.818233,-0.078950,-0.548633,1.089830,7.628000,21.995872

-2.906808,2.063443,12.727793,14.800587,0.217889,-0.305620,1.164173,7.636000,21.995872

-1.163234,1.239557,7.535390,14.812351,0.247733,-0.374101,1.032807,7.632000,21.995872

0.072596,2.908885,6.831254,14.800587,-0.055235,-0.300290,1.002164,7.636000,21.995872

1.691630,6.580450,7.327023,14.791763,0.259723,-0.116698,0.876927,7.640000,21.995872

-1.589547,0.691097,11.350657,14.788822,0.025769,-0.143344,0.757019,7.636000,21.995872

-2.149982,2.829849,12.069162,14.791763,-0.100534,-0.090584,0.559303,7.640000,21.995872

2.374210,3.859708,10.148356,14.794704,0.156336,-0.103375,0.465775,7.640000,21.995872

1.619779,4.767420,6.745033,14.818233,0.183249,-0.118030,0.427937,7.636000,21.995872

0.764757,1.617970,7.911408,14.788822,-0.044577,-0.010646,0.371980,7.640000,21.995872

0.034276,2.561607,10.227392,14.794704,0.042024,0.024261,0.346666,7.640000,21.995872

2.163449,1.239557,10.026211,14.806469,-0.167949,-0.028765,0.441261,7.640000,21.995872

1.068924,0.655172,10.553115,14.794704,0.034296,0.151363,0.605401,7.648000,21.995872

-1.050668,3.237003,9.255014,14.797646,0.108906,0.350944,0.711986,7.644000,21.995872

-1.151259,2.415511,7.643166,14.806469,0.101711,0.255017,0.752222,7.648000,21.995872

-0.154930,-0.041779,8.862231,14.797646,-0.193263,0.166818,0.810578,7.644000,21.995872

-0.526159,2.652618,9.099339,14.803528,0.130756,0.329627,0.688005,7.648000,21.995872

0.185162,-0.839321,11.829660,14.779999,0.031099,0.211051,0.379175,7.648000,21.995872

2.479591,3.809412,8.711345,14.794704,-0.090675,0.258215,0.139359,7.644000,22.295824

0.398319,2.487362,8.905341,14.785881,0.126492,0.500429,0.087132,7.644000,22.295824

1.406622,1.232371,9.707673,14.794704,-0.125848,0.442074,-0.004798,7.640000,22.295824

3.068766,4.616534,8.912526,14.809410,-0.055235,0.407434,0.003463,7.640000,22.295824

2.659218,1.962852,7.717412,14.815292,0.122495,0.498031,-0.026115,7.644000,22.295824

0.561180,0.446805,9.065807,14.800587,0.032431,0.485241,-0.154550,7.640000,22.295824

-0.274681,1.064720,6.991720,14.806469,0.089188,0.511621,-0.337876,7.644000,22.295824

-3.280431,-0.281281,11.757810,14.800587,-0.341149,0.556386,-0.573429,7.644000,22.295824

-0.420778,1.914952,14.191150,14.800587,-0.032586,0.468987,-0.736237,7.644000,22.295824

-0.425568,3.004686,7.858717,14.779999,0.158468,0.421823,-0.909171,7.644000,22.295824

-0.808771,4.688385,6.021738,14.815292,-0.094405,0.155360,-1.054926,7.636000,22.295824

0.374369,2.930440,8.890971,14.800587,-0.062430,0.204123,-0.896115,7.640000,22.295824

-0.483048,4.554264,9.916039,14.806469,-0.128512,0.105532,-0.792194,7.644000,22.295824

-0.514183,3.854918,12.050002,14.812351,0.099580,0.031455,-0.750893,7.640000,22.295824

-0.248336,-0.956676,11.020144,14.794704,0.060676,0.010938,-0.673086,7.644000,22.295824

-2.595455,3.299273,10.785432,14.797646,-0.016865,0.053838,-0.620059,7.644000,22.295824

-2.372719,2.959180,7.834767,14.779999,0.000455,0.014668,-0.535058,7.648000,22.295824

-0.875831,3.023846,10.138777,14.788822,0.122762,-0.031163,-0.476436,7.656000,22.295824

-1.800309,3.213053,6.131908,14.797646,0.275178,0.021596,-0.387438,7.656000,22.295824

-2.535580,1.323382,8.143725,14.785881,-0.204188,-0.177185,-0.204112,7.656000,22.295824

-1.373995,0.897069,11.070439,14.779999,-0.014200,-0.272045,0.025579,7.664000,22.295824

0.824632,-2.872692,11.317126,14.794704,-0.016865,-0.446045,0.019983,7.660000,22.295824

-0.689020,-0.156740,11.915881,14.803528,0.022838,-0.283503,0.150550,7.656000,22.894017

-2.130822,0.980894,8.040739,14.791763,0.184315,-0.225414,0.445790,7.656000,22.894017

-2.612221,3.129227,6.939030,14.800587,0.171791,-0.214756,0.773006,7.648000,22.894017

-2.444569,2.643038,7.286308,14.797646,0.059344,-0.289898,0.889184,7.648000,22.894017

-2.715206,-0.666879,10.462104,14.788822,-0.057633,-0.321074,0.870265,7.652000,22.894017

-2.870883,-0.772260,16.078424,14.812351,0.135019,-0.188643,0.783398,7.652000,22.894017

1.231786,3.974669,7.612031,14.806469,0.313016,-0.202232,0.672816,7.656000,22.894017

-0.123795,4.154295,4.874523,14.812351,0.052416,-0.028232,0.503879,7.652000,22.894017

1.100060,-0.829740,13.865427,14.800587,-0.189266,-0.087120,0.346666,7.644000,22.894017

1.888021,0.734207,15.038986,14.782940,0.171791,-0.058342,0.215300,7.644000,22.894017

0.403109,5.426051,5.008644,14.806469,0.068403,0.206788,-0.025582,7.644000,22.894017

-0.686625,4.587794,7.418034,14.800587,0.051083,0.161223,-0.098060,7.644000,22.894017

0.324073,-1.133908,12.227234,14.803528,-0.065094,0.024261,-0.194519,7.640000,22.894017

0.549205,2.195169,9.781919,14.794704,-0.143434,0.175079,-0.327484,7.644000,22.894017

0.096547,3.598651,9.513677,14.803528,-0.032053,0.205722,-0.475104,7.640000,22.894017

0.922828,3.272928,10.577065,14.800587,-0.130378,0.118056,-0.513741,7.652000,22.894017

-0.087870,5.615257,6.541457,14.788822,0.170991,0.186270,-0.537456,7.652000,22.894017

0.573155,3.665711,8.059899,14.800587,-0.100267,0.129514,-0.571297,7.656000,22.894017

0.149237,1.337752,10.292058,14.788822,-0.273734,0.167351,-0.520669,7.656000,22.894017

-0.756080,3.402259,7.350973,14.797646,0.070535,0.182273,-0.468442,7.656000,22.894017

0.656981,0.755763,8.076665,14.809410,-0.206852,-0.035693,-0.446326,7.660000,22.894017

-0.598009,0.221673,17.081938,14.809410,-0.320632,0.103400,-0.453521,7.660000,22.894017

0.091757,1.735325,11.812895,14.806469,0.322875,0.184138,-0.572363,7.668000,22.894017

-0.844696,3.498060,3.768024,14.797646,0.125160,-0.022370,-0.839092,7.660000,22.752108

0.180372,-0.367502,4.824228,14.821175,-0.166883,-0.120695,-0.801254,7.656000,22.752108

1.210231,-1.083612,14.310901,14.809410,-0.194062,-0.137215,-0.583021,7.652000,22.752108

0.228273,4.769815,11.930251,14.774117,0.278109,-0.014376,-0.579291,7.664000,22.752108

-0.686625,0.715047,8.756850,14.797646,0.023638,-0.176385,-0.652035,7.664000,22.752108

1.452128,-0.128000,9.520862,14.788822,0.181117,-0.188643,-0.173735,7.664000,22.752108

-0.832721,-0.465697,9.726833,14.803528,0.016443,-0.058342,0.145754,7.664000,22.752108

-4.559371,-0.377082,9.154424,14.788822,-0.060298,-0.118563,0.121772,7.660000,22.752108

-3.335516,2.683753,9.346025,14.803528,-0.097070,-0.172921,0.104718,7.656000,22.752108

-2.320028,3.332803,6.955795,14.788822,0.383096,-0.127090,0.171334,7.664000,22.752108

-1.958380,2.101763,5.851691,14.791763,-0.012335,-0.355448,0.257401,7.660000,22.752108

0.383949,5.426051,13.027170,14.779999,-0.253217,-0.237139,0.431401,7.656000,22.752108

2.699933,-0.511203,10.706396,14.803528,0.067071,-0.172388,0.623521,7.656000,22.752108

-0.281867,5.885894,6.426496,14.782940,0.256259,0.018399,0.938213,7.660000,22.752108

-6.238280,0.418065,9.736413,14.788822,-0.406699,-0.069800,1.220397,7.656000,22.752108

-2.339188,0.909044,17.845949,14.800587,-0.131443,-0.062339,0.970988,7.668000,22.752108

0.877323,5.107513,9.317285,14.782940,0.167794,-0.005849,0.485227,7.668000,22.752108

-0.890202,3.795042,8.028764,14.812351,-0.259878,-0.041289,-0.170804,7.668000,22.752108

2.625687,0.006121,10.325588,14.800587,-0.142368,0.019465,-0.482298,7.672000,22.752108

2.216139,3.260953,9.346025,14.791763,0.002054,0.198527,-0.567566,7.672000,22.752108

0.501305,5.507482,8.100615,14.797646,-0.135973,0.153495,-0.683744,7.672000,22.752108

1.071320,3.160362,10.883628,14.794704,0.162998,0.056769,-0.648038,7.672000,23.486516

0.544415,1.761671,11.309941,14.809410,0.072667,-0.028499,-0.578225,7.680000,23.486516

-0.933312,3.395074,9.326865,14.806469,-0.021128,-0.058609,-0.402893,7.676000,23.486516

-0.188461,-1.723083,7.904223,14.809410,-0.277998,-0.072998,-0.152151,7.676000,23.486516

-1.802704,4.360267,9.650192,14.800587,0.059344,0.170016,0.041034,7.680000,23.486516

-0.629144,3.998619,6.421706,14.803528,0.617583,-0.153736,0.092728,7.680000,23.486516

-2.935548,-0.959072,10.172307,14.815292,0.023904,-0.290964,0.086066,7.680000,23.486516

-3.606153,-5.979032,16.265236,14.791763,0.174189,-0.379430,-0.111649,7.680000,23.486516

-3.852841,1.364097,10.713581,14.797646,0.364976,-0.338395,-0.062620,7.684000,23.486516

4.316571,6.898988,2.877077,14.788822,0.165396,-0.462033,0.176930,7.672000,23.486516

4.661454,1.843101,8.634704,14.794704,-0.110659,-0.194238,0.742896,7.668000,23.486516

-0.332162,3.488480,12.890654,14.791763,0.034296,0.188135,0.713852,7.668000,23.486516

-2.030231,3.423814,10.677656,14.794704,0.138217,-0.148407,0.432467,7.668000,23.486516

-1.716483,1.103040,6.371410,14.800587,-0.039780,-0.099644,0.257135,7.672000,23.486516

-2.073341,2.350845,9.939990,14.800587,-0.162886,-0.069267,0.140158,7.668000,23.486516

0.089361,2.154454,9.767549,14.800587,-0.146898,-0.064471,0.123904,7.668000,23.486516

1.694025,2.346056,12.871494,14.800587,0.055347,0.078086,0.070611,7.672000,23.486516

-0.423173,6.072706,6.064848,14.800587,0.286636,0.266209,-0.046366,7.676000,23.486516

-0.365692,4.949442,6.210944,14.794704,-0.000610,0.071158,-0.144158,7.684000,23.486516

1.385067,1.991592,10.919553,14.779999,-0.133309,0.054105,-0.146556,7.684000,23.486516

0.434244,0.346214,10.557905,14.771175,-0.119186,0.178276,-0.157747,7.680000,23.486516

-0.674650,2.355635,9.753179,14.800587,-0.092540,0.186803,-0.261401,7.684000,23.486516

-0.756080,4.379427,8.890971,14.806469,-0.106396,0.168950,-0.271793,7.684000,23.486516

1.114430,-3.081059,10.514794,14.800587,0.023371,0.029057,-0.331214,7.680000,23.486516

0.510885,1.378468,9.621452,14.785881,-0.058699,0.074356,-0.350399,7.676000,23.486516

0.589921,4.187826,6.589357,14.768234,0.216290,0.073290,-0.402360,7.680000,23.486516

-0.186066,0.556976,8.112590,14.791763,0.160333,0.088745,-0.236886,7.688000,23.486516

-1.294960,2.877750,7.077941,14.797646,-0.305976,0.065563,-0.292844,7.680000,23.486516

-1.189579,0.717442,14.203125,14.791763,-0.153027,-0.035160,-0.209441,7.680000,23.486516

1.526373,-2.896642,15.743122,14.777058,0.319411,-0.144410,-0.030911,7.684000,23.486516

-1.488956,1.522169,9.542417,14.800587,0.236808,0.123651,-0.010393,7.680000,23.486516

-2.015861,2.202354,6.196574,14.800587,-0.131177,-0.139880,0.264063,7.676000,23.486516

-0.727340,1.565279,8.979588,14.812351,-0.148231,-0.199035,0.403156,7.668000,23.486516

-0.411198,3.246583,9.604687,14.806469,0.196838,-0.053813,0.597674,7.676000,23.486516

-1.551227,2.887330,8.773615,14.815292,-0.043244,-0.073531,0.666954,7.676000,23.486516

-2.913993,1.117410,11.060859,14.797646,-0.098669,0.000013,0.786596,7.676000,23.486516

-3.048114,3.495665,7.808422,14.779999,0.130489,0.000546,0.725843,7.676000,23.486516

-1.694928,1.004844,10.347143,14.782940,-0.218310,-0.037558,0.694400,7.680000,23.486516

0.930013,3.692056,12.651152,14.821175,0.243203,0.228371,0.622455,7.680000,23.486516

-0.444728,5.251215,5.746310,14.791763,0.455307,0.120187,0.573160,7.688000,23.486516

-3.383417,8.901224,4.994274,14.794704,-0.423486,0.154028,0.501748,7.688000,23.486516

0.712067,-1.591357,14.035473,14.791763,-0.503958,0.034919,0.413282,7.688000,23.486516

3.918998,-0.925541,13.755256,14.800587,0.101978,0.253419,0.402357,7.684000,23.486516

-2.166747,3.933954,6.814489,14.800587,0.165396,0.459927,0.217699,7.684000,12.157472

-2.423014,0.954549,4.330854,14.800587,-0.112525,0.122319,-0.024782,7.688000,12.157472

-1.659003,1.246742,9.175979,14.800587,-0.492234,0.238497,-0.273125,7.680000,12.157472

0.245038,-0.365107,12.366145,14.791763,-0.320898,0.143103,-0.486828,7.684000,12.157472

1.183886,2.834639,11.369817,14.791763,0.121962,0.360004,-0.559839,7.692000,12.157472

-0.645909,0.741392,7.707831,14.794704,0.075598,0.271538,-0.800721,7.692000,12.157472

-0.518973,5.203314,6.749824,14.806469,0.007650,0.234766,-1.119943,7.692000,12.157472

0.597106,-0.259726,13.671431,14.785881,-0.184469,0.053838,-1.273692,7.684000,12.157472

3.998034,0.281549,14.744399,14.797646,0.127825,0.056769,-1.268096,7.688000,12.157472

1.600619,4.777000,7.295888,14.788822,0.443316,0.070892,-1.281419,7.688000,12.157472

0.386344,1.728140,6.816884,14.800587,0.106508,-0.216088,-1.047732,7.680000,12.157472

0.522860,-1.160253,13.211587,14.794704,-0.083480,-0.195571,-0.739701,7.676000,12.157472

-0.633934,1.174891,11.470407,14.794704,0.305022,-0.142545,-0.560372,7.676000,12.157472

-1.065038,0.236043,5.633744,14.797646,0.257858,-0.365041,-0.365321,7.676000,12.157472

-1.100963,3.651341,3.906935,14.794704,0.039892,-0.458036,-0.025049,7.676000,12.157472

-2.320028,4.827296,8.855046,14.774117,-0.200457,-0.368771,0.171068,7.680000,12.157472

0.544415,2.444251,10.955479,14.788822,0.082526,-0.394618,0.255003,7.680000,12.157472

-0.607589,3.093302,12.210468,14.779999,0.038560,-0.334398,0.385836,7.688000,12.157472

-2.763107,3.021451,10.692026,14.794704,0.243469,-0.267516,0.524397,7.696000,12.157472

-0.717760,3.636971,9.822634,14.785881,0.133420,-0.254725,0.605401,7.700000,12.157472

-1.175209,2.853800,9.753179,14.779999,-0.182071,-0.140146,0.626985,7.696000,12.157472

-0.480653,5.085958,8.237131,14.779999,0.202434,-0.112967,0.591279,7.696000,24.340837

0.527650,3.088511,8.634704,14.788822,-0.087211,-0.294961,0.501481,7.692000,24.340837

1.112035,-0.959072,12.004497,14.797646,-0.236430,-0.132153,0.574758,7.692000,24.340837

0.259408,0.039652,12.873889,14.815292,-0.136506,0.111128,0.558770,7.692000,24.340837

0.448614,-0.257331,10.289662,14.782940,-0.030454,0.063431,0.495086,7.688000,24.340837

-1.359625,2.255045,7.561735,14.800587,-0.020595,0.160956,0.491355,7.688000,24.340837

-0.037575,3.344779,7.834767,14.803528,0.252529,0.128714,0.453251,7.696000,24.340837

-0.820746,0.633617,7.758127,14.785881,0.062275,0.161756,0.283515,7.696000,24.340837

0.537230,2.908885,9.080178,14.797646,-0.274534,0.136974,0.281117,7.692000,24.340837

2.331100,2.944810,12.315849,14.803528,-0.140503,0.336821,0.338672,7.692000,24.340837

-1.057853,0.487520,14.380356,14.812351,0.202168,0.381854,0.299502,7.684000,24.340837

-1.148864,1.974827,10.483660,14.803528,0.185114,0.297385,0.127901,7.688000,24.340837

-1.053063,4.908727,7.532995,14.809410,0.129956,0.193465,-0.178798,7.688000,24.340837

-0.016019,0.535421,7.588080,14.794704,-0.085079,0.117256,-0.059955,7.684000,24.340837

-1.544042,3.744747,9.271779,14.785881,-0.102665,0.133244,-0.034375,7.684000,24.340837

-0.483048,4.135135,6.855204,14.803528,-0.134375,0.135109,-0.075677,7.688000,24.340837

0.834213,-1.212944,16.171831,14.785881,-0.163952,0.126582,-0.046632,7.684000,24.340837

-1.359625,4.080050,10.486054,14.803528,0.281840,0.362402,-0.028779,7.688000,24.340837

-2.511630,5.153018,4.328459,14.794704,-0.033385,0.089811,-0.271527,7.692000,24.340837

-0.600404,3.957904,7.829977,14.803528,-0.219110,0.076221,-0.209974,7.692000,24.340837

-1.637448,3.744747,10.224998,14.803528,0.012979,0.162288,-0.063686,7.696000,24.340837

-2.401459,1.170101,10.747111,14.797646,0.054014,0.124184,-0.049830,7.696000,24.340837

-1.378785,3.234608,8.661049,14.777058,-0.154626,-0.119096,-0.093796,7.700000,24.281420

-0.492628,-0.259726,9.923224,14.779999,0.062008,0.077553,0.092195,7.696000,24.281420

-1.453031,1.857471,8.526928,14.803528,0.013246,0.153495,0.199313,7.700000,24.281420

-0.334557,0.233648,7.899433,14.785881,-0.094405,0.074089,0.279784,7.696000,24.281420

-0.396827,-1.809304,11.700329,14.794704,-0.029388,0.140172,0.269925,7.696000,24.281420

-0.389642,0.736602,9.765154,14.797646,0.123295,0.233434,0.247009,7.696000,24.281420

-0.564479,4.089630,6.294770,14.800587,-0.084546,0.207854,0.083135,7.696000,24.281420

2.220929,0.061207,9.068203,14.788822,-0.168215,-0.002119,-0.187058,7.692000,24.281420

2.022142,1.160521,9.113708,14.794704,0.011913,0.217180,-0.280053,7.692000,24.281420

1.028209,0.183353,7.652746,14.794704,-0.093073,0.286726,-0.377046,7.688000,24.281420

-0.387247,-1.507531,8.514953,14.788822,0.052149,0.175612,-0.736237,7.684000,24.281420

-1.795519,-1.708713,9.487331,14.791763,-0.283327,0.243826,-0.827900,7.680000,24.281420

-0.178881,1.364097,9.566367,14.791763,-0.173278,0.145501,-0.966194,7.680000,24.281420

4.129759,-1.512321,12.560142,14.777058,-0.108261,0.136442,-0.956069,7.680000,24.281420

-0.233966,3.737562,11.700329,14.782940,0.207230,0.410365,-0.895049,7.676000,24.281420

-1.237479,4.865616,7.571315,14.782940,0.117965,0.067428,-0.839891,7.676000,24.281420

-1.132098,4.520733,6.455236,14.779999,-0.074420,-0.020238,-0.826301,7.680000,24.281420

-1.134493,3.476505,8.471843,14.803528,-0.032053,0.027458,-0.749027,7.684000,24.281420

-1.996701,4.362662,6.254055,14.779999,-0.032319,-0.050349,-0.682145,7.684000,24.281420

-0.842301,4.453673,3.437511,14.788822,-0.240693,-0.231277,-0.660828,7.684000,24.281420

-1.031508,-0.360317,12.627202,14.777058,-0.355538,-0.148673,-0.532926,7.684000,24.281420

-0.590824,3.854918,9.757969,14.782940,-0.154093,-0.193439,-0.612865,7.684000,23.700543

0.276173,1.309012,7.063571,14.782940,-0.158356,-0.206762,-0.516939,7.680000,23.700543

-0.940497,0.274364,11.360236,14.800587,-0.453597,-0.245133,-0.442596,7.684000,23.700543

-0.523764,5.608072,11.388977,14.777058,0.092652,-0.232342,-0.397030,7.684000,23.700543

0.939593,-1.332695,8.146120,14.809410,-0.199125,-0.422863,-0.325086,7.680000,23.700543

-0.978817,0.856353,10.615385,14.782940,-0.304644,-0.328269,-0.101257,7.688000,23.700543

-1.048273,0.897069,9.851375,14.800587,-0.257214,-0.143610,0.027977,7.688000,23.700543

-1.268615,2.247860,7.755732,14.794704,-0.022194,-0.248330,-0.030112,7.684000,23.700543

-1.005162,-1.392570,7.573710,14.815292,-0.107995,-0.302422,-0.096727,7.692000,23.700543

1.636544,-3.078664,7.082731,14.809410,0.010048,-0.454572,-0.058623,7.692000,23.700543

-0.971632,0.657567,7.561735,14.791763,0.096915,-0.161730,0.119640,7.696000,23.700543

-2.334398,5.378150,8.610754,14.788822,0.187246,0.029057,0.251006,7.700000,23.700543

0.156422,-1.576987,17.395685,14.800587,0.190443,-0.352251,0.385836,7.700000,23.700543

-0.808771,-0.736335,17.647163,14.800587,0.598397,-0.238471,0.564100,7.712000,23.700543

-3.163075,3.011871,6.222919,14.788822,0.815564,-0.042621,0.630449,7.712000,23.700543

-5.024005,2.674173,5.063730,14.788822,0.181384,-0.245399,0.841487,7.712000,23.700543

-4.137848,3.821388,13.570840,14.785881,0.267717,-0.154003,0.943009,7.712000,23.700543

-1.560807,5.342225,11.688354,14.791763,0.433457,-0.231810,0.830296,7.712000,23.700543

0.860558,2.506522,11.717094,14.800587,0.250930,-0.308551,0.889450,7.716000,23.700543

0.827027,3.423814,9.729228,14.785881,0.480887,0.024794,0.726642,7.724000,23.700543

-3.182235,2.415511,7.315048,14.800587,0.260523,0.012004,0.498550,7.720000,25.143345

-1.603917,2.039493,8.452682,14.800587,0.187246,0.123118,0.349331,7.720000,25.143345

-1.419501,1.122200,10.026211,14.809410,0.320743,0.203324,0.178529,7.724000,25.143345

-1.311725,7.866575,7.947333,14.782940,0.224018,0.228638,-0.060222,7.724000,25.143345

-1.100963,2.729259,10.715977,14.797646,-0.303845,0.035452,-0.074877,7.720000,25.143345

2.467616,2.123319,13.712146,14.797646,0.182449,0.170549,-0.047432,7.724000,25.143345

2.613712,-0.420192,10.704001,14.785881,0.292232,0.138573,-0.135631,7.716000,25.143345

0.369579,1.035980,6.946215,14.771175,-0.177009,0.106331,-0.346403,7.716000,25.143345

-0.478258,1.682635,9.657377,14.788822,-0.192463,0.321367,-0.424210,7.712000,25.143345

-1.373995,0.365374,8.639494,14.797646,-0.134641,-0.006649,-0.783934,7.704000,25.143345

-1.048273,-1.277609,10.083691,14.794704,-0.242292,-0.003984,-0.978185,7.704000,25.143345

-1.235084,-0.137580,11.585368,14.779999,-0.126914,0.035452,-1.086369,7.700000,25.143345

0.558785,1.534144,8.253896,14.797646,0.030299,-0.051681,-1.071713,7.696000,25.143345

1.444943,1.380862,7.703041,14.797646,-0.221241,-0.103375,-0.984047,7.696000,25.143345

1.717975,1.811966,8.009604,14.785881,0.140881,-0.042355,-0.752491,7.700000,25.143345

-1.333280,0.063602,9.554392,14.782940,-0.092273,-0.173721,-0.571297,7.704000,25.143345

-2.078131,3.744747,11.824870,14.782940,0.108106,-0.113767,-0.474038,7.704000,25.143345

-0.722550,3.270533,11.039304,14.791763,0.213093,-0.215822,-0.264599,7.704000,25.143345

-1.354835,4.041729,6.680368,14.788822,0.209362,-0.277641,-0.100724,7.704000,25.143345

-0.502208,4.556659,7.403664,14.779999,0.120630,-0.325604,0.136427,7.704000,25.143345

-2.504445,3.512430,9.034673,14.797646,0.027901,-0.353316,0.258467,7.712000,25.143345

-1.397946,2.868170,10.445339,14.777058,0.084658,-0.379430,0.293907,7.704000,25.229228

-1.443451,2.214329,10.402228,14.794704,-0.007805,-0.338928,0.383971,7.704000,25.229228

-0.214806,0.025282,8.517348,14.782940,-0.043511,-0.298692,0.357058,7.708000,25.229228

-0.605194,2.381981,11.858400,14.791763,-0.040313,-0.218486,0.431401,7.708000,25.229228

0.340838,3.368729,8.433522,14.782940,0.176054,-0.236872,0.492688,7.708000,25.229228

-1.668583,1.368887,10.215417,14.785881,-0.090408,-0.164395,0.519068,7.708000,25.229228

-0.449518,2.726864,12.442785,14.800587,0.102777,-0.187577,0.564366,7.712000,25.229228

-0.427963,-0.362712,10.965058,14.782940,0.217622,-0.213690,0.614195,7.704000,25.229228

-0.760870,2.753209,8.529324,14.774117,-0.042445,0.040249,0.494553,7.700000,25.229228

0.747992,4.286021,9.393926,14.779999,0.136351,-0.020505,0.516669,7.704000,25.229228

3.255578,0.818033,6.809699,14.788822,0.113436,-0.040756,0.544115,7.708000,25.229228

0.345629,1.730535,9.968730,14.768234,0.082792,0.162022,0.528660,7.708000,25.229228

-1.110543,1.620364,9.904064,14.771175,-0.013134,0.160690,0.315757,7.712000,25.229228

-2.672096,-0.128000,10.347143,14.782940,0.242137,0.219578,0.175597,7.708000,25.229228

-0.495023,1.239557,5.679250,14.771175,-0.012868,0.078886,0.059153,7.704000,25.229228

1.174305,2.180799,8.821516,14.774117,-0.150096,0.150298,0.019450,7.700000,25.229228

0.642611,0.983289,13.518149,14.797646,-0.043244,0.223042,0.041300,7.704000,25.229228

0.127682,1.191656,10.926738,14.777058,0.074532,0.127915,-0.011193,7.696000,25.229228

-2.480494,5.085958,6.546247,14.771175,-0.008871,0.205189,-0.143092,7.700000,25.229228

-0.329767,0.679122,9.911250,14.777058,-0.214846,-0.002119,-0.188923,7.696000,25.229228

-0.894992,0.741392,11.767390,14.771175,0.005252,0.151896,-0.204378,7.700000,25.229228

-1.311725,3.191497,7.767707,14.788822,-0.044044,0.097272,-0.205444,7.704000,24.361592

-2.068551,4.551868,9.774734,14.782940,-0.206586,0.040249,-0.139361,7.696000,24.361592

1.301241,-1.957795,18.875809,14.800587,0.208030,-0.145742,-0.053294,7.712000,24.361592

-2.528395,5.459581,6.663603,14.785881,0.295962,0.201458,0.050094,7.712000,24.361592

-2.719996,7.588753,1.286784,14.771175,0.192042,-0.005583,0.042366,7.712000,24.361592

-1.352440,1.069510,8.843071,14.774117,-0.167949,-0.158799,0.318421,7.712000,24.361592

-3.155890,2.034703,13.875007,14.788822,-0.048840,0.090077,0.310161,7.712000,24.361592

-3.153495,5.145833,17.783678,14.777058,0.169659,0.128981,0.170002,7.720000,24.361592

1.665284,-3.548088,16.061659,14.771175,0.322875,-0.221950,0.079138,7.728000,24.361592

2.161053,3.919583,11.477592,14.779999,0.470495,-0.085255,-0.027447,7.732000,24.361592

-1.136889,4.662040,11.295571,14.779999,0.627175,0.073823,-0.069548,7.724000,24.361592

1.899996,3.809412,10.095666,14.782940,0.468897,-0.160664,-0.049830,7.724000,24.361592

0.568365,1.356912,5.147555,14.771175,0.705515,-0.057543,-0.096727,7.728000,24.361592

-2.569110,3.294483,8.620334,14.774117,0.081194,0.101002,-0.076210,7.720000,24.361592

1.770665,-1.948215,9.106524,14.768234,0.180851,-0.298692,0.024247,7.720000,24.361592

1.310822,-0.688434,13.487014,14.779999,0.344459,0.029057,0.207839,7.716000,24.361592

3.133431,3.486085,6.002577,14.777058,0.422266,-0.055944,0.427138,7.704000,24.361592

0.518070,5.636813,2.699846,14.788822,0.184848,0.065296,0.531858,7.704000,24.361592

-0.844696,7.480978,8.208390,14.782940,-0.093872,0.214782,0.468973,7.700000,24.361592

-0.262706,0.097132,11.362632,14.782940,-0.232166,0.087146,0.326948,7.688000,24.361592

-1.611102,0.626431,13.391213,14.788822,-0.096537,0.132978,0.193184,7.696000,25.126829

0.058226,7.610309,5.837321,14.779999,-0.044310,0.130046,0.064749,7.684000,25.126829

0.764757,0.063602,6.529481,14.788822,-0.549790,-0.151071,-0.024782,7.672000,25.126829

1.023419,4.532709,14.507292,14.782940,-0.365131,0.085547,-0.061554,7.672000,25.126829

1.133590,3.775882,4.464975,14.785881,-0.214313,0.113792,-0.167073,7.672000,25.126829

0.374369,2.140084,6.254055,14.768234,-0.416558,0.053572,-0.192654,7.668000,25.126829

0.223483,-0.508808,8.601173,14.806469,-0.462390,0.073556,-0.081272,7.668000,25.126829

2.798129,1.998778,11.257251,14.777058,-0.279064,0.127648,0.007193,7.668000,25.126829

0.781522,3.402259,8.069479,14.779999,-0.127713,0.189734,-0.189723,7.660000,25.126829

-1.436266,0.925809,7.444379,14.779999,-0.421888,0.099670,-0.516939,7.652000,25.126829

-0.313002,1.601204,11.386581,14.779999,-0.289189,0.066895,-0.748494,7.648000,25.126829

0.752782,-0.903986,10.574670,14.782940,-0.224439,0.048509,-0.969392,7.652000,25.126829

-1.606312,-1.531481,8.495793,14.782940,-0.387247,0.167085,-1.113814,7.660000,25.126829

-3.354676,4.793766,8.481422,14.759411,-0.120518,0.110328,-1.409854,7.656000,25.126829

1.368302,0.585716,10.962664,14.779999,-0.289722,-0.314146,-1.300338,7.652000,25.126829

1.167120,0.442015,11.113549,14.771175,0.025503,-0.267249,-0.925692,7.652000,25.126829

-0.643515,1.948482,9.997471,14.774117,-0.109327,-0.169191,-0.718917,7.648000,25.126829

-4.609667,1.213211,12.617621,14.768234,0.028434,-0.329868,-0.319223,7.652000,25.126829

0.982704,0.224068,8.764035,14.771175,0.121163,-0.535843,-0.038105,7.656000,25.126829

2.364630,4.925492,6.289979,14.782940,0.309286,-0.340260,0.087398,7.652000,25.126829

1.471288,6.479859,7.633585,14.771175,0.034030,-0.408208,0.437264,7.648000,25.126829

1.715580,1.960457,9.231064,14.771175,-0.093073,-0.315479,0.626185,7.652000,25.126829

2.831659,1.764066,12.232023,14.753529,-0.098402,-0.269914,0.752755,7.656000,25.126829

3.164567,2.693333,11.276411,14.759411,0.165662,-0.114033,0.932351,7.648000,25.126829

2.872374,1.426368,8.723320,14.771175,-0.002476,0.034919,1.020550,7.648000,25.126829

1.116825,3.292088,6.721083,14.765293,0.211227,0.136708,0.983512,7.652000,25.126829

0.000746,2.120924,11.784155,14.753529,-0.028855,0.231302,0.948872,7.652000,25.126829

-0.818351,4.671619,9.202324,14.759411,-0.007805,0.360803,0.927555,7.660000,19.346911

-1.733248,4.662040,5.763075,14.768234,-0.030454,0.407700,0.762081,7.660000,19.346911

-0.083080,4.884776,8.570039,14.753529,0.153671,0.360004,0.596608,7.660000,19.346911

-2.379904,2.185589,14.128880,14.774117,0.059077,0.235033,0.441527,7.668000,19.346911

-0.581244,5.749378,7.715016,14.771175,0.342860,0.223042,0.278985,7.676000,19.346911

-5.294642,6.439144,4.122487,14.759411,0.087855,0.271005,0.134029,7.672000,19.346911

-4.638407,3.979459,7.887458,14.750587,-0.298782,0.082883,0.235019,7.672000,19.346911

-3.469637,1.699400,5.329577,14.750587,0.264520,0.067428,0.201711,7.676000,19.346911

-4.204908,4.503968,8.028764,14.762352,-0.270270,-0.000254,0.572893,7.684000,19.346911

-2.068551,3.244188,17.857925,14.753529,-0.181805,0.058368,0.931552,7.684000,19.346911

-4.200119,2.183194,11.525493,14.762352,0.089720,0.197728,1.088764,7.684000,19.346911

0.254618,3.756722,3.923700,14.753529,0.186713,-0.230211,0.733570,7.684000,19.346911

-1.472191,1.079090,8.835886,14.759411,-0.323829,0.050641,0.612862,7.676000,19.346911

-2.164352,-3.406781,11.750625,14.765293,-0.129045,0.019198,0.344268,7.664000,19.346911

-1.388366,-1.514716,15.661692,14.765293,-0.136240,-0.040490,0.015187,7.668000,19.346911

4.448297,1.292247,8.658654,14.744705,0.209362,-0.167859,-0.187324,7.664000,19.346911

1.466498,1.402418,4.338039,14.741764,-0.012068,0.039982,-0.207043,7.656000,19.346911

-0.598009,-1.950610,8.261081,14.759411,-0.568708,0.082350,-0.166540,7.648000,19.346911

0.819842,-0.930331,15.242563,14.750587,0.035895,0.202791,-0.224896,7.640000,19.346911

1.145565,-2.309863,12.964900,14.771175,0.027635,0.188135,-0.433802,7.648000,19.346911

-0.224386,1.213211,7.020461,14.762352,0.206165,0.058901,-0.332813,7.652000,19.346911

-1.520092,2.858590,8.234735,14.765293,0.027102,0.076221,-0.228093,7.644000,19.346911

-2.672096,-1.495556,9.427456,14.768234,0.104109,0.045311,-0.375980,7.640000,19.346911

-2.248178,3.026241,7.923383,14.756470,0.177120,0.015468,-0.510810,7.636000,19.346911

-2.655331,6.005645,7.973679,14.741764,-0.208451,-0.065271,-0.635248,7.628000,19.346911

1.605409,2.520892,10.543535,14.759411,-0.185535,-0.250995,-0.722115,7.616000,19.346911

-1.134493,-2.245197,10.426179,14.741764,0.041224,-0.241136,-0.689340,7.624000,20.191005

-1.591942,5.150623,7.988049,14.744705,0.225616,-0.220618,-0.730108,7.636000,20.191005

-1.088988,5.418866,8.416758,14.747646,0.040958,-0.310949,-0.680547,7.632000,20.191005

0.271383,2.370006,9.532837,14.741764,-0.073888,-0.386091,-0.470841,7.636000,20.191005

-1.445846,5.718243,5.861271,14.724117,0.210961,-0.418333,-0.108452,7.644000,20.191005

-3.103199,5.440421,7.777287,14.744705,-0.146099,-0.399681,0.162807,7.648000,20.191005

-1.290170,1.929322,7.288703,14.741764,0.102777,-0.425261,0.590213,7.652000,20.191005

-0.030389,5.275165,12.814013,14.735882,-0.135440,-0.356514,0.938213,7.660000,20.191005

2.817289,10.335841,10.246552,14.730000,0.386293,-0.372502,1.027212,7.660000,20.191005

4.086649,-1.241684,6.663603,14.738823,-0.157557,-0.436719,1.022415,7.664000,20.191005

1.923947,3.098092,11.305151,14.727058,-0.364598,0.001878,1.084235,7.664000,20.191005

4.711749,2.355635,10.965058,14.735882,0.016976,0.089811,0.991506,7.664000,20.191005

6.160736,-1.174623,10.977034,14.738823,0.075065,0.094873,0.810844,7.668000,20.191005

1.231786,0.628826,9.975915,14.738823,0.333800,0.265409,0.710654,7.668000,20.191005

-0.387247,1.510194,10.466894,14.741764,-0.138371,0.428484,0.356792,7.664000,20.191005

-0.231571,2.063443,11.321917,14.735882,-0.106396,0.292056,0.176930,7.664000,20.191005

1.682050,1.828731,4.237448,14.753529,0.160599,0.288325,0.143089,7.656000,20.191005

-0.897387,-2.182926,8.699369,14.753529,-0.071223,0.344016,0.225426,7.648000,20.191005

-3.055299,2.360425,10.917158,14.738823,-0.186868,0.296852,0.483895,7.652000,20.191005

0.371974,-3.782799,12.406860,14.738823,-0.064028,0.320567,0.540918,7.648000,20.191005

-0.875831,-0.029804,12.763718,14.721176,-0.119186,0.448736,0.474035,7.640000,20.191005

3.293898,4.848851,9.120893,14.735882,0.163797,0.432748,0.484161,7.644000,20.191005

-0.808771,1.847891,10.026211,14.741764,0.007384,0.573973,0.356259,7.636000,20.191005

-1.857789,1.685030,8.289822,14.738823,-0.092806,0.551857,0.121506,7.632000,20.191005

2.441271,-0.329181,11.844030,14.753529,-0.064028,0.441541,-0.128703,7.636000,20.191005

2.498751,7.672579,5.106840,14.735882,0.433191,0.788742,-0.307233,7.636000,19.725577

-0.157326,3.529195,10.727951,14.744705,-0.536999,0.594491,-0.290445,7.624000,19.725577

2.208954,-0.139975,9.183164,14.765293,0.169393,0.561449,-0.416216,7.632000,19.725577

-2.899623,0.147428,9.540022,14.759411,-0.018730,0.820451,-0.518004,7.632000,19.725577

-3.558253,3.627391,11.096785,14.762352,-0.038714,0.781014,-0.760219,7.640000,19.725577

-0.099845,1.749696,10.476475,14.730000,-0.042978,0.601952,-0.906773,7.640000,19.725577

