ax,ay,az,gx,gy,gz,temp,volt,vel

0.194742,1.174891,9.005932,16.435881,0.057478,0.083682,-0.524399,1.068000,0.000000

0.024696,3.124437,10.141171,16.450586,-0.093073,0.099403,-0.701864,1.056000,0.000000

-0.643515,2.393956,9.607082,16.453527,-0.133842,0.141238,-0.742099,1.168000,0.000000

-1.685348,2.219119,8.359277,16.456469,-0.081615,0.117789,-0.749560,1.172000,0.000000

-1.318910,2.013148,9.298124,16.459410,-0.017397,0.053838,-0.844154,1.668000,0.000000

-0.667465,2.305340,9.611873,16.480000,0.037760,0.025593,-0.811646,2.336000,0.000000

-0.269891,2.499337,8.850256,16.485882,0.015377,0.076221,-0.937683,3.244000,0.000000

-0.111820,2.499337,9.317285,16.477058,0.030299,0.053572,-1.045334,3.844000,0.000000

-1.750014,2.647828,8.577224,16.494705,0.026302,0.034653,-1.145790,4.056000,0.000000

0.616266,2.166429,10.169911,16.497646,-0.007538,0.011737,-1.179897,4.220000,0.000000

-0.226781,2.068233,8.895761,16.474117,-0.074687,0.043713,-1.064785,4.240000,0.000000

-1.103358,2.001173,9.015512,16.506470,-0.085612,0.009073,-0.924626,4.404000,0.000000

-0.372877,1.148546,11.326706,16.491764,-0.059232,0.091942,-0.851615,4.652000,0.000000

-2.212252,2.494547,7.595265,16.491764,-0.067226,0.047976,-0.880660,5.056000,0.000000

-1.690138,2.587952,10.100456,16.509411,-0.084013,0.043979,-0.859876,5.584000,0.000000

-1.122518,4.046519,9.142448,16.518234,-0.000877,0.029057,-0.941147,6.548000,0.000000

-1.441056,2.611902,8.589199,16.521175,-0.092007,0.002944,-0.943545,6.852000,0.000000

-0.959657,0.863538,10.862072,16.529999,-0.008871,0.039716,-1.000834,7.084000,0.000000

-1.886530,0.360584,8.332932,16.515293,0.114768,0.030922,-1.115946,7.096000,0.000000

-1.026718,2.183194,9.832214,16.527058,0.125693,-0.019173,-0.970724,7.160000,0.000000

-1.256639,2.257440,8.936477,16.538822,0.092119,0.123918,-0.637380,7.232000,0.000000

-3.658844,3.071746,9.017907,16.529999,0.247999,-0.158799,-0.335744,7.260000,0.000000

-0.638724,2.278995,10.383068,16.535881,0.149408,-0.077261,-0.091931,7.252000,0.000000

-1.829049,-0.954281,13.304993,16.532940,-0.017930,-0.140679,0.079138,7.232000,0.000000

-3.754645,-2.281122,11.796130,16.532940,0.144345,-0.099111,0.242480,7.212000,0.000000

-2.279313,0.149823,10.289662,16.553528,0.106241,-0.223283,0.624587,7.084000,1434.783990

-4.628827,1.704190,9.705278,16.541763,0.187779,-0.112168,1.039202,7.056000,1434.783990

-0.310607,0.501890,7.353368,16.538822,-0.045909,-0.178251,1.129800,6.908000,1434.783990

-0.878226,2.482572,6.936635,16.541763,-0.066960,-0.127090,1.192152,6.916000,1434.783990

-0.971632,1.541329,10.462104,16.553528,0.081194,0.025060,0.863337,6.716000,1434.783990

-1.666188,3.320828,9.353210,16.550587,0.104909,0.044246,0.293374,6.636000,1434.783990

-0.518973,-1.378200,14.047448,16.559410,-0.069891,-0.108171,-0.326418,6.396000,1434.783990

-1.991910,3.490875,7.956913,16.553528,0.232278,0.071958,-0.704262,6.632000,1434.783990

-0.095055,-1.160253,7.964098,16.553528,-0.143967,-0.235540,-0.666424,6.472000,1434.783990

-1.450636,-0.583053,11.118340,16.562351,0.092652,-0.012777,-0.031977,6.232000,1434.783990

-2.020651,2.587952,7.130631,16.562351,0.087589,-0.107638,0.771141,6.408000,1434.783990

-3.009794,1.732930,9.096943,16.565292,0.074266,-0.093249,1.280617,6.204000,1434.783990

-1.908085,0.480335,9.484936,16.571175,-0.093073,-0.141479,1.523365,6.072000,1434.783990

-0.502208,1.079090,8.970007,16.574116,-0.029655,-0.128955,1.512706,6.100000,1434.783990

-1.285380,3.270533,9.858560,16.591763,-0.053103,-0.044220,1.145254,6.196000,1434.783990

0.668956,0.830008,8.843071,16.574116,0.000189,0.038383,0.844152,6.124000,1434.783990

1.155145,3.177127,8.673024,16.588821,0.097181,0.129780,0.490823,6.552000,1434.783990

-0.863856,5.598492,8.855046,16.594706,0.115567,0.163621,0.160676,6.644000,1434.783990

-3.771410,1.440738,9.300520,16.591763,0.019374,0.077020,-0.233955,7.000000,1434.783990

-1.050668,2.832244,10.014235,16.591763,-0.142901,-0.011978,-0.566501,6.980000,1434.783990

-0.317792,2.724468,10.505215,16.612352,0.232544,0.229703,-0.498553,7.048000,1434.783990

-1.841024,-0.808185,9.180769,16.591763,0.019641,0.025060,-0.544384,7.044000,1434.783990

-0.775241,2.415511,9.350815,16.591763,-0.169015,-0.041822,-0.336543,7.016000,1434.783990

-0.947682,2.396351,11.405742,16.606470,0.083325,0.075422,0.146553,6.992000,1434.783990

-3.958221,1.637130,9.817844,16.606470,0.011380,0.269673,0.480164,6.884000,1434.783990

-5.792807,-1.294374,9.087363,16.618235,0.104642,0.286993,0.464709,6.764000,1434.783990

-1.694928,1.452713,7.916198,16.621176,-0.198592,0.164420,0.413548,6.664000,1434.783990

-0.545319,2.623878,8.074269,16.609411,0.020707,0.101002,0.085533,6.968000,1434.783990

-0.487838,1.713770,10.426179,16.624117,0.037494,0.078086,-0.281386,7.084000,1434.783990

-1.151259,1.179681,9.597502,16.603529,-0.130111,0.107131,-0.542519,7.060000,1434.783990

0.228273,2.010753,9.508886,16.635881,0.010048,0.055171,-0.702396,7.080000,1434.783990

-1.433871,3.203472,9.343630,16.603529,0.159267,0.037051,-0.766347,7.000000,1434.783990

-1.093778,1.687425,10.021420,16.606470,-0.157823,0.086347,-0.629386,7.004000,1434.783990

-0.626749,2.096973,7.748547,16.621176,-0.039247,-0.003718,-0.738635,7.048000,1434.783990

-0.351322,2.262230,9.427456,16.632940,0.011647,0.079952,-0.835894,7.052000,1434.783990

-1.618287,1.536539,6.574987,16.632940,0.112636,0.048242,-1.156182,7.092000,1434.783990

-0.008834,1.495824,8.689790,16.641764,-0.139704,-0.068468,-1.191089,7.108000,1434.783990

-0.981212,5.136253,7.988049,16.641764,0.070269,0.000279,-1.081306,7.196000,1434.783990

-2.255363,5.002132,9.825029,16.647646,-0.028855,0.013069,-0.774608,7.208000,1434.783990

-2.688861,3.967484,9.441826,16.653528,0.012713,-0.167592,-0.712522,7.272000,1434.783990

0.994679,1.639525,10.227392,16.644705,-0.402969,-0.236073,-0.378378,7.264000,1434.783990

-2.284103,3.210657,7.406059,16.644705,0.184581,0.098337,-0.511609,7.288000,1434.783990

-0.547714,-1.972165,9.968730,16.662352,-0.116788,-0.215289,-0.422078,7.280000,1434.783990

0.664166,1.294642,12.255974,16.662352,-0.155692,-0.123892,-0.516139,7.316000,1434.783990

-2.811007,0.403695,6.201364,16.656469,-0.117054,-0.200101,-0.563836,7.300000,1434.783990

-1.007557,-0.063334,11.297966,16.653528,0.068936,0.000013,-0.450056,7.304000,1434.783990

-2.576295,-0.844111,8.732900,16.644705,-0.233765,-0.123093,-0.131367,7.260000,1434.783990

-2.988239,1.376073,10.974638,16.644705,-0.008071,-0.089519,0.114578,7.248000,1778.639677

-2.593060,4.012989,7.118657,16.662352,-0.040313,0.003743,0.391965,7.260000,1778.639677

-3.886371,0.985684,8.234735,16.650587,0.355384,-0.030097,0.477499,7.276000,1778.639677

-1.773964,3.294483,9.748388,16.629999,0.052416,0.043446,0.341604,7.288000,1778.639677

-2.310448,2.504127,8.088639,16.653528,-0.019263,-0.147075,-0.006396,7.296000,1778.639677

-0.260311,3.294483,10.145962,16.656469,0.360713,0.053838,-0.232357,7.288000,1778.639677

1.600619,0.334239,11.020144,16.659410,-0.048307,-0.093516,-0.318957,7.300000,1778.639677

-4.135453,1.637130,7.535390,16.674116,-0.021394,0.084215,-0.475637,7.296000,1778.639677

-1.215924,-0.460907,13.398398,16.671175,-0.026191,-0.049816,-0.631251,7.304000,1778.639677

1.768270,-1.857204,10.854887,16.671175,-0.031520,-0.228079,-0.706127,7.312000,1778.639677

-3.227741,1.349727,7.087521,16.677057,-0.086678,-0.004517,-0.818574,7.316000,1778.639677

-1.690138,0.432435,8.665839,16.665293,0.239472,-0.141745,-0.852415,7.328000,1778.639677

-1.302145,5.380546,7.700646,16.671175,0.088388,-0.106839,-0.758886,7.336000,1778.639677

-0.518973,1.847891,7.190507,16.659410,0.298094,0.121520,-0.517738,7.328000,1778.639677

-0.035179,1.752090,8.208390,16.685881,0.503004,-0.023969,-0.444727,7.324000,1778.639677

2.532281,0.367769,8.033554,16.671175,0.396952,-0.101243,-0.504148,7.316000,1778.639677

-0.784821,-0.614189,9.116103,16.677057,-0.015532,-0.159598,-0.467909,7.308000,1778.639677

-1.050668,-0.223800,11.990127,16.682940,-0.001143,-0.163862,-0.363989,7.312000,1778.639677

-1.649423,1.948482,7.822792,16.665293,0.113169,-0.085522,-0.333346,7.332000,1778.639677

-0.404013,3.553145,10.763877,16.688822,0.031898,-0.252327,-0.321622,7.336000,1778.639677

-0.066315,2.307735,8.220366,16.677057,0.529650,-0.058076,-0.437799,7.344000,1778.639677

-2.068551,3.682476,8.804750,16.677057,0.192308,-0.180915,-0.257138,7.344000,1778.639677

-1.829049,2.908885,11.350657,16.691763,0.083325,-0.196370,0.023447,7.340000,1778.639677

-0.815956,1.974827,11.640453,16.677057,-0.095737,-0.273644,0.418878,7.332000,1778.639677

-2.813402,1.941297,9.956755,16.677057,0.078795,-0.085255,0.760216,7.328000,1778.639677

-5.280272,4.999737,7.547365,16.682940,-0.024326,-0.106039,0.915830,7.336000,1778.639677

-1.577572,5.299115,9.020303,16.662352,0.218955,-0.057543,1.131398,7.328000,1778.639677

-4.176168,0.717442,9.681328,16.682940,-0.040846,-0.126557,0.960329,7.340000,1778.639677

-1.690138,1.517379,9.346025,16.674116,0.016976,-0.039424,0.696532,7.344000,2561.963031

-0.277076,1.344937,9.880115,16.685881,-0.172479,-0.034894,0.286179,7.324000,2561.963031

0.968334,3.167547,8.287426,16.694704,-0.104797,0.012004,0.128700,7.340000,2561.963031

0.108522,4.084840,8.953242,16.697645,-0.095205,0.001612,0.054091,7.324000,2561.963031

-1.539252,0.667147,9.860954,16.697645,-0.200724,0.012537,-0.106853,7.336000,2561.963031

-1.532067,-2.386503,10.845307,16.685881,-0.203388,-0.116431,-0.316559,7.332000,2561.963031

0.530045,0.906649,7.861113,16.700586,0.047353,-0.047684,-0.503082,7.328000,2561.963031

0.860558,3.155572,9.968730,16.697645,0.021506,0.041581,-0.581422,7.332000,2561.963031

-1.247059,2.003568,9.496911,16.682940,-0.064561,-0.042888,-0.730108,7.328000,2561.963031

0.434244,1.637130,10.797407,16.691763,-0.036583,-0.233142,-0.586219,7.336000,2561.963031

-0.363297,2.245465,9.120893,16.694704,0.036161,-0.112701,-0.293643,7.340000,2561.963031

-2.480494,2.987921,8.395202,16.706469,0.109439,-0.143610,0.002397,7.356000,2561.963031

-1.412316,1.344937,8.998747,16.703527,0.089188,-0.290698,0.250207,7.356000,2561.963031

-2.118846,2.231094,9.870534,16.697645,0.055880,-0.233408,0.334676,7.360000,2561.963031

-1.721273,2.554422,10.265713,16.706469,0.226949,-0.230744,0.476700,7.368000,2561.963031

-2.684071,4.650064,9.777128,16.712351,0.210428,-0.163862,0.664023,7.360000,2561.963031

-0.966842,-0.192665,9.096943,16.715292,-0.009404,-0.273911,0.974186,7.364000,2561.963031

-2.238597,1.122200,8.407177,16.718235,0.088921,-0.245932,1.142057,7.364000,2561.963031

-1.381181,0.377349,9.568762,16.712351,-0.083747,-0.334398,1.289943,7.364000,2561.963031

-0.993187,0.841983,10.902788,16.727058,-0.032319,-0.219019,1.484461,7.368000,2561.963031

-2.073341,2.063443,9.092153,16.724117,-0.023260,-0.161463,1.542017,7.372000,2561.963031

-0.856671,0.830008,11.724279,16.697645,-0.189799,-0.281905,1.649668,7.372000,2561.963031

-1.278195,5.387731,9.120893,16.700586,0.277576,0.144968,1.836192,7.392000,2561.963031

0.173187,1.467083,6.797724,16.724117,0.097181,-0.085522,1.970755,7.380000,2561.963031

-0.655490,-1.605727,10.354328,16.715292,0.113169,-0.071932,2.129567,7.396000,2561.963031

-0.334557,-0.626164,8.883786,16.697645,0.151540,-0.008248,1.867368,7.408000,2561.963031

-1.534462,0.319869,9.743598,16.706469,0.016177,0.169749,1.383472,7.404000,2561.963031

1.404227,3.442974,10.792617,16.694704,0.038826,0.244892,0.975251,7.420000,12.791631

2.058068,2.688543,9.853769,16.703527,0.181916,0.343749,0.609931,7.412000,12.791631

1.437757,2.528077,9.362790,16.715292,0.161932,0.423155,0.185190,7.424000,12.791631

1.339562,2.676568,9.762758,16.718235,0.166195,0.404236,-0.127370,7.424000,12.791631

2.316730,1.428763,9.149633,16.718235,0.120897,0.420224,-0.370651,7.432000,12.791631

0.304913,1.110225,9.264594,16.721176,0.047086,0.413296,-0.316825,7.424000,12.791631

0.666561,1.246742,9.995075,16.712351,0.040158,0.332558,-0.208109,7.424000,12.791631

0.757572,1.900582,9.884905,16.718235,0.043356,0.381854,-0.037839,7.420000,12.791631

-0.406408,1.141361,10.840517,16.709410,0.004186,0.378123,0.057022,7.412000,12.791631

0.417479,3.213053,7.746151,16.715292,-0.007538,0.371994,0.030642,7.408000,12.791631

0.007931,3.136412,11.161449,16.715292,0.174988,0.253419,-0.075144,7.412000,12.791631

-0.665070,4.400982,8.522139,16.709410,0.096915,0.560916,-0.417548,7.424000,12.791631

-0.729735,1.067115,10.244158,16.706469,-0.116788,0.360004,-0.856145,7.424000,12.791631

2.587367,3.519615,8.737690,16.709410,-0.231900,0.418092,-1.126338,7.424000,12.791631

1.495238,-4.070202,14.880916,16.718235,0.172057,0.177210,-1.430372,7.432000,12.791631

-4.180958,0.533026,5.609794,16.712351,-0.122650,0.202524,-1.571597,7.436000,12.791631

0.376764,1.589229,7.319838,16.709410,-0.117587,0.135642,-1.531361,7.420000,12.791631

1.555114,0.444410,14.126484,16.724117,-0.528739,0.055970,-1.425309,7.416000,12.791631

-4.288734,3.624996,10.270503,16.721176,0.171258,0.595556,-1.247046,7.436000,12.791631

-2.482889,-1.596147,9.202324,16.712351,0.178186,-0.018107,-1.002167,7.436000,12.791631

-0.842301,-3.672629,5.626559,16.715292,0.108106,-0.261653,-0.821505,7.436000,12.791631

0.156422,3.229818,14.040263,16.709410,-0.345413,-0.049283,-0.328550,7.424000,12.791631

-4.310289,2.937625,10.454919,16.715292,0.323408,0.118589,-0.306966,7.444000,12.791631

-2.248178,4.199801,6.230104,16.724117,0.405478,-0.209693,-0.285916,7.456000,12.791631

0.424664,1.095855,10.617781,16.715292,0.445448,0.174279,-0.066350,7.448000,16.162073

-1.232689,-2.618820,8.076665,16.727058,0.185380,-0.294162,-0.386905,7.456000,16.162073

-2.046996,4.618929,8.031159,16.724117,0.297028,-0.121761,-0.407156,7.452000,16.162073

2.613712,-2.319443,8.045529,16.718235,-0.280929,-0.333332,-0.322954,7.448000,16.162073

1.895206,4.139925,9.259805,16.709410,-0.345946,-0.076728,-0.330681,7.444000,16.162073

-4.001332,0.336634,9.700488,16.727058,-0.266007,0.049575,-0.344004,7.432000,16.162073

-2.775082,2.425091,13.702565,16.738823,0.040158,-0.239537,-0.393033,7.440000,16.162073

-1.469796,1.083880,12.713423,16.718235,-0.116255,-0.233408,-0.299772,7.440000,16.162073

-0.140560,1.704190,11.211745,16.706469,-0.125315,-0.289898,-0.108185,7.444000,16.162073

-2.138007,7.030714,10.502819,16.718235,0.300226,0.111927,0.144688,7.448000,16.162073

-0.789611,6.738522,10.495634,16.715292,0.413472,-0.138814,0.171601,7.456000,16.162073

1.478473,0.276759,5.894802,16.709410,0.319944,-0.249396,0.144954,7.456000,16.162073

0.302518,0.566556,11.010564,16.721176,-0.470917,-0.352784,0.090596,7.452000,16.162073

-3.155890,8.510836,7.789262,16.732941,-0.173012,0.055970,0.063150,7.452000,16.162073

2.508331,3.169942,7.923383,16.724117,0.721237,-0.045286,0.208372,7.456000,16.162073

-1.920060,-5.210231,10.251343,16.727058,-0.029388,-0.306153,-0.086602,7.440000,16.162073

-0.700995,5.823624,8.239526,16.732941,-0.006206,-0.383160,0.248342,7.452000,16.162073

1.219811,3.447764,9.149633,16.724117,0.240272,0.050108,0.386103,7.452000,16.162073

-2.298473,-1.066847,12.160173,16.730000,-0.177009,-0.178517,0.350663,7.452000,16.162073

-0.011229,3.234608,9.132869,16.732941,-0.173544,-0.187577,0.460446,7.464000,16.162073

0.055831,0.791688,8.057505,16.747646,0.134486,0.018399,0.322685,7.464000,16.162073

-1.254244,2.178404,8.251501,16.750587,-0.053636,0.020797,0.225692,7.460000,16.162073

-1.232689,2.094578,9.506492,16.730000,0.004452,0.012537,0.181460,7.460000,16.162073

0.970729,7.186390,8.162886,16.724117,0.280241,-0.030630,-0.101524,7.464000,16.954171

0.776732,9.631705,12.835568,16.732941,0.525120,0.221976,0.046363,7.460000,16.954171

3.660336,0.949759,5.442143,16.727058,0.735359,-0.141479,-0.145223,7.480000,16.954171

1.531163,-1.323114,8.661049,16.718235,-0.188466,-0.088719,-0.110317,7.480000,16.954171

-5.402418,10.117894,9.250224,16.730000,-0.069358,0.263544,-0.120709,7.468000,16.954171

-0.188461,-1.531481,9.204719,16.727058,0.120897,-0.110303,0.019450,7.468000,16.954171

0.029486,-2.961308,11.700329,16.724117,-0.174877,-0.034361,-0.181196,7.472000,16.954171

-1.409921,7.385177,3.188429,16.738823,0.040691,0.087679,-0.112448,7.476000,16.954171

1.835331,-1.301559,10.543535,16.741764,0.021506,-0.188643,-0.100724,7.464000,16.954171

2.295175,1.840706,8.282637,16.750587,-0.190332,-0.048750,-0.257937,7.460000,16.954171

-1.153654,0.942574,12.033237,16.741764,-0.145566,0.113792,-0.195052,7.464000,16.954171

-1.354835,2.010753,10.732741,16.741764,-0.173012,-0.034361,-0.266197,7.460000,16.954171

0.319283,-0.585448,10.385464,16.741764,-0.042978,-0.077794,-0.260602,7.472000,16.954171

-0.540529,4.410563,10.524375,16.741764,-0.151961,0.008806,-0.215303,7.472000,16.954171

0.132472,1.347332,10.648915,16.732941,-0.098669,-0.120162,-0.283784,7.468000,16.954171

2.649637,1.984407,12.203283,16.718235,-0.300381,-0.089785,-0.322154,7.476000,16.954171

-3.163075,8.362345,6.369015,16.744705,0.014844,0.376524,-0.485762,7.472000,16.954171

0.908458,1.313802,10.622570,16.718235,0.077730,-0.144943,-0.414350,7.468000,16.954171

1.868861,-1.996115,9.889694,16.721176,0.046554,-0.080992,-0.529462,7.476000,16.954171

-2.746342,0.259993,5.782236,16.741764,0.165662,0.028524,-0.451655,7.488000,16.954171

-1.199159,-0.403427,10.246552,16.732941,-0.009937,-0.275243,-0.381576,7.488000,16.954171

-0.586034,1.261111,4.639812,16.730000,-0.194595,-0.255791,-0.167873,7.484000,16.954171

-4.971315,3.574700,13.266672,16.753529,-0.623866,-0.224615,-0.164942,7.484000,17.615587

-0.176486,6.051151,14.720448,16.747646,1.032198,0.477514,0.309895,7.496000,17.615587

5.894889,0.590506,1.473595,16.721176,0.378299,-0.476156,-0.229692,7.500000,17.615587

-0.490233,-0.166320,11.000983,16.738823,-0.439474,-0.607522,0.001864,7.488000,17.615587

-2.502050,7.828256,12.129038,16.741764,0.250930,0.186004,0.447656,7.492000,17.615587

-3.210975,2.238280,5.142766,16.735882,-0.277198,-0.252327,0.049827,7.488000,17.615587

1.899996,1.150941,13.697776,16.732941,0.255993,-0.062073,0.508942,7.492000,17.615587

-5.086276,3.624996,6.939030,16.747646,0.235209,0.006941,0.294440,7.504000,17.615587

-1.544042,-2.010485,5.964257,16.744705,0.330869,-0.443114,0.087665,7.500000,17.615587

-1.172814,2.916070,19.321281,16.747646,-0.283061,-0.155868,0.489490,7.500000,17.615587

2.711908,7.203155,9.501701,16.744705,0.466498,0.027458,0.530259,7.500000,17.615587

2.992125,-0.709989,2.326222,16.747646,0.342593,0.100469,0.248342,7.508000,17.615587

-0.198041,4.309972,7.307863,16.738823,0.249864,0.076754,0.425806,7.504000,17.615587

-5.469479,0.178563,6.771379,16.750587,-0.126914,0.128981,0.115643,7.504000,17.615587

-0.339347,0.224068,8.828701,16.724117,-0.189532,-0.274177,0.049028,7.504000,17.615587

0.977914,2.245465,13.194821,16.738823,-0.053636,0.143636,0.069545,7.504000,17.615587

-0.097450,-0.298046,8.071875,16.741764,0.109972,0.307777,0.026112,7.508000,17.615587

-4.173773,4.264466,12.586487,16.727058,-0.155425,0.069293,0.039435,7.516000,17.615587

0.848583,8.168348,11.034513,16.735882,-0.059499,0.154295,0.006927,7.508000,17.615587

1.674865,4.321947,4.769143,16.753529,-0.039514,0.351743,0.090862,7.512000,17.615587

-3.783385,3.438184,21.376207,16.741764,-0.355538,0.208919,0.083401,7.512000,19.233556

2.431691,4.218961,10.620175,16.730000,-0.018197,-0.072465,-0.153484,7.516000,19.233556

3.006495,2.894515,9.513677,16.753529,0.016976,0.209985,0.113512,7.508000,19.233556

0.601896,1.874237,9.334050,16.747646,-0.071223,0.127915,-0.004531,7.504000,19.233556

-4.746183,-3.267870,11.403347,16.753529,-0.276399,0.177477,-0.013591,7.504000,19.233556

1.080899,6.367293,3.839875,16.744705,0.169659,0.095406,-0.295242,7.520000,19.233556

-2.207462,0.269574,8.634704,16.744705,-0.151162,-0.004251,-0.373049,7.520000,19.233556

1.409017,6.228382,10.814172,16.753529,-0.065094,-0.043154,-0.287248,7.524000,19.233556

0.530045,4.367452,13.731306,16.735882,0.032697,0.205189,-0.209707,7.524000,19.233556

-1.680558,2.108948,12.449970,16.747646,-0.311839,0.219045,-0.122041,7.528000,19.233556

-1.699718,-1.246474,12.414045,16.747646,-0.256148,-0.208094,-0.459116,7.532000,19.233556

-2.054181,-2.199692,13.225957,16.759411,-0.329425,0.114592,-0.335211,7.540000,19.233556

0.319283,6.503809,3.662643,16.753529,0.024970,0.034120,-0.245946,7.544000,19.233556

-4.707863,-5.047369,8.936477,16.753529,-0.338485,0.007740,-0.063686,7.536000,19.233556

-4.647987,3.656131,11.657219,16.759411,-0.289189,-0.034361,-0.103389,7.536000,19.233556

-1.733248,2.937625,7.554550,16.744705,0.226949,-0.159865,-0.177732,7.532000,19.233556

-0.969237,2.492151,9.250224,16.735882,0.311151,0.031455,-0.047698,7.532000,19.233556

1.389857,2.173614,8.124565,16.747646,-0.124515,-0.295494,0.143355,7.528000,19.233556

-1.508116,0.087552,4.175178,16.727058,-0.204188,-0.095381,0.182525,7.532000,20.227447

-1.409921,0.683912,12.538586,16.738823,-0.020595,-0.264052,0.164939,7.524000,20.227447

-0.909362,1.627550,13.242722,16.732941,-0.233232,-0.286967,0.019450,7.528000,20.227447

-0.653095,8.965890,11.683564,16.727058,0.159800,0.328028,0.221962,7.532000,20.227447

4.582418,1.155731,8.004814,16.727058,0.358048,-0.024235,0.178795,7.532000,20.227447

-0.942892,-2.465539,8.522139,16.738823,-0.477578,-0.303754,0.111114,7.540000,20.227447

-2.650541,-0.317206,11.012959,16.738823,-0.474914,0.042380,0.256868,7.540000,20.227447

-0.140560,-1.337485,7.149792,16.750587,0.053748,-0.368505,-0.085536,7.544000,20.227447

-1.591942,-0.480068,9.257409,16.741764,-0.097336,-0.192107,0.090063,7.548000,20.227447

-0.909362,2.326895,11.297966,16.747646,0.103843,-0.026101,0.267527,7.548000,20.227447

-0.423173,0.015701,4.548800,16.753529,0.284505,-0.106839,0.211303,7.548000,20.227447

0.113312,0.377349,10.004656,16.753529,-0.025391,-0.051414,0.422075,7.548000,20.227447

2.165843,0.346214,12.224838,16.744705,-0.186601,-0.198768,0.403423,7.552000,20.227447

-1.644633,3.720797,8.567643,16.730000,0.182449,0.425820,0.277919,7.552000,20.227447

0.910853,1.376073,12.706238,16.747646,-0.084280,0.027725,0.091662,7.536000,20.227447

-0.425568,4.513548,12.270344,16.744705,0.072933,0.343216,-0.043168,7.532000,20.227447

-0.727340,2.571187,12.325429,16.759411,0.348722,0.321100,-0.243814,7.544000,20.227447

2.616107,0.837193,10.160332,16.759411,0.217622,0.173746,-0.417015,7.552000,20.227447

-2.981054,2.025123,5.430168,16.721176,-0.217244,0.225440,-0.523600,7.540000,20.227447

0.680931,3.696846,12.433206,16.732941,0.149674,-0.003718,-0.683478,7.544000,20.634986

1.595829,-2.719411,6.723478,16.747646,-0.225238,-0.149206,-0.493223,7.556000,20.634986

-2.054181,-3.145724,8.637099,16.753529,-0.156224,-0.149473,-0.494556,7.548000,20.634986

-0.152535,2.666988,6.084008,16.747646,-0.415492,-0.177718,-0.183594,7.540000,20.634986

0.065411,-0.369897,15.561101,16.753529,0.108906,0.137774,0.052492,7.544000,20.634986

-1.656608,-0.139975,14.538427,16.744705,0.019374,0.033587,-0.013324,7.556000,20.634986

-2.523605,5.524247,9.571157,16.768234,-0.234298,-0.089785,0.227558,7.544000,20.634986

-3.278036,5.933795,13.285832,16.738823,0.096915,0.372794,0.430336,7.540000,20.634986

-4.216884,1.519774,2.469923,16.759411,-0.432280,-0.110303,0.498017,7.536000,20.634986

-0.205226,-4.503700,16.770586,16.744705,-0.008604,-0.137482,0.466042,7.532000,20.634986

1.823356,-1.988930,14.152829,16.744705,-0.008604,0.008007,0.250473,7.544000,20.634986

-5.922137,1.246742,6.325905,16.747646,-0.192996,0.152163,-0.046632,7.536000,20.634986

0.939593,-2.549365,12.761323,16.735882,-0.369128,-0.420998,-0.886522,7.540000,20.634986

4.639899,0.403695,11.159055,16.759411,-0.215379,-0.025301,-0.767147,7.544000,20.634986

-0.341742,9.981378,10.035790,16.735882,-0.003808,0.296852,-0.534525,7.548000,20.634986

-0.703390,-1.272819,12.346985,16.738823,-0.395774,-0.191840,-0.607536,7.544000,20.634986

-1.560807,0.147428,13.237932,16.741764,-0.536999,0.081284,-0.318424,7.540000,20.634986

-1.570387,8.381505,12.569721,16.735882,0.417203,0.122586,-0.049030,7.544000,20.634986

-3.960617,1.328172,4.508085,16.732941,0.020707,0.076221,0.047962,7.532000,20.634986

0.290543,4.350687,6.522296,16.715292,1.015145,0.119654,0.185457,7.552000,20.634986

-0.260311,4.405772,11.453642,16.750587,-0.398705,-0.559025,-0.035974,7.540000,19.926897

-1.661398,-3.883390,11.889536,16.756470,-0.168215,-0.057810,0.220630,7.532000,19.926897

-1.036298,3.177127,12.200889,16.721176,-0.006739,-0.007715,0.194783,7.548000,19.926897

0.381554,0.482730,14.160014,16.750587,0.132088,0.161223,0.142290,7.544000,19.926897

-1.706903,-1.030922,5.355922,16.747646,-0.034718,-0.089519,0.251006,7.544000,19.926897

-2.049391,-0.439352,10.112432,16.744705,-0.188733,-0.316545,0.079138,7.544000,19.926897

-0.265101,1.474268,9.463381,16.738823,0.181650,0.101002,0.144954,7.552000,19.926897

-2.085316,1.155731,6.570197,16.759411,0.363644,0.023994,-0.122041,7.552000,19.926897

4.393212,-3.809145,9.801079,16.756470,0.036428,-0.237405,-0.181729,7.544000,19.926897

0.843793,6.125396,13.182846,16.768234,0.259457,0.286726,-0.086602,7.556000,19.926897

-1.285380,1.725745,8.713739,16.753529,0.335932,0.014935,-0.184393,7.552000,19.926897

-1.342860,6.106236,6.991720,16.759411,0.147809,0.073024,-0.176399,7.556000,19.926897

0.161212,0.985684,16.435282,16.774117,-0.252417,-0.005050,0.047695,7.564000,19.926897

-2.121242,3.900423,10.026211,16.738823,-0.055768,0.214782,0.423940,7.560000,19.926897

-1.594337,-0.868061,6.582172,16.750587,-0.185269,-0.037558,0.083135,7.552000,19.926897

-0.162116,-0.259726,11.218930,16.750587,-0.131710,0.067161,0.181726,7.548000,19.926897

-1.869765,1.170101,8.934082,16.750587,-0.020861,0.069293,-0.128170,7.552000,19.926897

0.429454,5.299115,7.679091,16.756470,-0.061364,-0.082857,-0.252874,7.556000,19.926897

0.276173,2.494547,12.634387,16.762352,0.160067,0.064497,-0.339475,7.556000,19.926897

-1.678163,-2.041620,11.970966,16.750587,-0.304378,0.033321,-0.325086,7.556000,19.807343

-1.278195,0.995264,8.210786,16.750587,-0.337152,-0.082324,-0.264865,7.548000,19.807343

-0.334557,3.440579,4.532035,16.756470,0.147809,0.015468,-0.065551,7.552000,19.807343

2.982545,-3.787590,9.255014,16.759411,0.021240,-0.391687,0.045830,7.560000,19.807343

-2.981054,3.481295,9.829819,16.771175,-0.239361,-0.063938,-0.047965,7.560000,19.807343

-1.393156,7.243871,4.977509,16.744705,0.339129,0.079152,0.053558,7.556000,19.807343

4.283041,-0.745915,4.630231,16.762352,0.354851,-0.034094,0.045564,7.560000,19.807343

1.334772,-4.230668,12.485896,16.753529,-0.437609,-0.379963,0.003196,7.560000,19.807343

-1.958380,3.031031,9.774734,16.750587,-0.318767,-0.002652,0.170002,7.560000,19.807343

0.403109,0.542606,11.626083,16.777058,-0.010469,-0.056211,-0.066084,7.556000,19.807343

-1.290170,2.199959,8.124565,16.753529,0.043356,0.098071,-0.180929,7.568000,19.807343

-0.825536,0.973709,6.962980,16.744705,-0.169548,-0.260055,-0.338142,7.556000,19.807343

3.174147,-1.476396,10.792617,16.765293,0.414272,-0.103108,-0.363989,7.560000,19.807343

0.750387,2.796319,0.498823,16.756470,0.173656,-0.144676,-0.315759,7.560000,19.807343

0.412689,-3.282240,6.716293,16.744705,-0.006206,-0.163862,-0.108984,7.564000,19.807343

-2.660121,4.970997,7.920988,16.765293,-0.179140,-0.164661,-0.236087,7.556000,19.807343

1.092875,4.927886,8.519743,16.750587,0.041491,0.026926,0.035172,7.556000,19.807343

-3.057694,2.135294,9.477751,16.756470,0.076131,0.110861,-0.164142,7.560000,19.807343

-3.996542,0.480335,10.327983,16.756470,-0.113590,-0.257124,-0.185459,7.572000,19.807343

3.291502,0.729417,9.918435,16.759411,-0.208718,0.154561,0.054623,7.572000,19.807343

0.115707,-4.015116,15.333574,16.741764,-0.678757,-0.175320,0.087665,7.568000,20.063777

-2.990633,-1.770983,14.598303,16.753529,-0.063762,0.051440,0.006127,7.580000,20.063777

-2.403854,4.515944,7.298283,16.741764,0.219754,0.049575,-0.044501,7.584000,20.063777

0.268988,-0.518388,3.724914,16.727058,0.176321,0.049308,0.047962,7.584000,20.063777

-2.645751,-1.984140,3.799159,16.741764,0.495010,0.182007,0.059686,7.588000,20.063777

0.371974,-2.939753,9.789104,16.756470,0.060410,-0.355448,-0.188657,7.588000,20.063777

-2.073341,1.455108,-1.244752,16.735882,0.036428,-0.028232,-0.153217,7.580000,20.063777

-1.347650,-0.080099,16.020945,16.753529,0.028168,0.081284,-0.045033,7.592000,20.063777

-4.762948,1.388048,10.280083,16.750587,-0.477312,-0.292297,-0.096727,7.584000,20.063777

-3.924691,13.506846,18.277054,16.756470,0.232278,0.359471,0.103386,7.596000,20.063777

2.891534,9.902342,17.515436,16.727058,0.695123,0.485241,0.351463,7.592000,20.063777

1.703605,6.448724,4.541615,16.735882,0.541374,0.434613,0.354394,7.596000,20.063777

-1.977540,5.188944,11.580578,16.727058,-0.324362,-0.171856,0.365852,7.564000,20.063777

0.728832,-0.590238,10.054951,16.744705,0.660217,0.212117,0.253138,7.572000,20.063777

-0.116610,-1.873969,2.611230,16.732941,-0.211116,-0.140946,-0.101257,7.584000,20.063777

1.646124,-3.967216,10.155541,16.730000,-0.175410,-0.368238,-0.022917,7.584000,20.063777

-2.834957,8.096498,8.991562,16.724117,-0.068292,0.006941,-0.253674,7.588000,20.063777

1.119220,4.226146,10.917158,16.756470,0.017243,-0.000787,-0.119643,7.580000,20.063777

1.746715,6.211617,8.531718,16.750587,0.216024,0.232368,-0.117511,7.592000,21.517024

0.321678,4.317157,16.634069,16.744705,-0.052837,0.113526,0.124970,7.592000,21.517024

1.035394,-1.696738,11.235696,16.747646,-0.236163,0.044778,0.009591,7.584000,21.517024

0.539625,2.245465,9.266990,16.741764,-0.532203,0.076754,-0.000801,7.584000,21.517024

-1.721273,0.003726,5.916357,16.735882,-0.128779,0.226772,-0.073545,7.584000,21.517024

-4.410880,1.534144,10.969849,16.735882,-0.610809,-0.107105,-0.261667,7.588000,21.517024

-0.933312,0.525841,12.854729,16.724117,-0.438408,0.038117,-0.182528,7.584000,21.517024

-3.428922,-0.233381,10.361513,16.750587,-0.055502,0.215847,-0.111649,7.592000,21.517024

-1.465006,-0.626164,5.394242,16.721176,-0.135973,-0.312814,-0.045833,7.592000,21.517024

-2.468519,4.113580,7.204877,16.738823,0.112636,0.009073,0.138293,7.592000,21.517024

2.915485,2.822664,12.706238,16.727058,0.212560,0.070892,0.479898,7.592000,21.517024

-3.330726,4.911121,7.470724,16.718235,0.362844,0.201991,0.195849,7.592000,21.517024

6.371498,-1.260844,14.662969,16.718235,0.070002,-0.333065,-0.051962,7.600000,21.517024

2.549047,5.260795,2.417233,16.735882,-0.139171,0.328028,-0.233422,7.600000,21.517024

-2.985843,-7.540585,13.225957,16.712351,-0.123716,0.171082,-0.446859,7.588000,21.517024

-2.238597,5.706268,10.100456,16.735882,-0.340350,0.281397,-0.684010,7.592000,21.517024

-3.780990,2.523287,10.718371,16.715292,0.017243,0.095406,-0.881992,7.592000,21.517024

1.646124,0.578531,10.210628,16.730000,-0.589759,-0.355448,-0.820706,7.596000,21.566115

0.472565,2.034703,12.181728,16.730000,-0.201790,-0.023436,-0.668822,7.596000,21.566115

-3.369047,12.860191,6.972560,16.730000,0.161932,0.248622,-0.605138,7.600000,21.566115

-0.305817,-1.531481,13.290623,16.703527,0.203500,0.435679,-0.192920,7.604000,21.566115

-2.684071,-0.082494,4.975114,16.721176,-0.227636,-0.389822,-0.455119,7.600000,21.566115

-3.903136,3.380704,3.648273,16.718235,-0.014733,-0.083124,-0.112448,7.596000,21.566115

2.692748,-2.312258,12.584091,16.709410,0.447047,-0.383160,-0.190256,7.592000,21.566115

5.116508,-5.631754,11.223721,16.712351,-0.005407,-0.640030,-0.070614,7.596000,21.566115

-2.607430,-0.513598,4.771537,16.718235,0.041224,-0.312281,0.045031,7.608000,21.566115

-9.337436,0.250413,11.731464,16.727058,-0.874607,-0.602992,-0.167606,7.592000,21.566115

0.166002,1.232371,11.666799,16.718235,0.582410,-0.218220,0.225692,7.596000,21.566115

-0.233966,-1.244079,3.233935,16.718235,0.247999,-0.061274,-0.050629,7.608000,21.566115

-3.998937,-3.586408,1.044887,16.721176,0.006051,-0.137215,0.257135,7.616000,21.566115

-6.602323,2.039493,10.213022,16.721176,-0.150362,-0.486281,0.427671,7.620000,21.566115

1.341957,-7.260368,10.157937,16.709410,0.129690,-0.349586,0.528127,7.620000,21.566115

-5.692215,13.518822,5.181086,16.730000,0.281040,0.083149,0.599006,7.628000,21.566115

-0.130980,-6.596947,17.256775,16.712351,-0.299048,-0.366906,0.532924,7.628000,21.566115

-4.238439,-2.810422,9.834609,16.732941,0.168060,-0.200900,0.804449,7.624000,21.566115

4.666244,2.870565,10.866862,16.732941,0.177653,-0.154802,0.407953,7.620000,22.552712

-2.578690,6.479859,13.369658,16.724117,0.317812,0.484975,0.698930,7.616000,22.552712

-0.669860,-1.524296,10.162726,16.715292,0.209096,-0.321607,0.436464,7.616000,22.552712

2.613712,-8.687799,3.880590,16.741764,-0.847695,-0.689059,0.079138,7.608000,22.552712

-4.602482,6.568475,5.178690,16.732941,0.232811,0.526809,0.063150,7.612000,22.552712

5.188358,4.415352,6.634862,16.691763,0.076930,-0.269647,-0.058890,7.620000,22.552712

3.547770,-0.915961,8.783195,16.706469,0.443050,-0.116964,-0.035441,7.632000,22.552712

0.613871,5.691898,6.278005,16.715292,0.080661,0.107930,0.132164,7.636000,22.552712

-3.273246,-5.044975,9.302915,16.715292,-0.603082,-0.457770,0.028777,7.636000,22.552712

-0.827931,0.221673,15.024616,16.697645,-0.075753,0.096472,0.211836,7.632000,22.552712

0.154027,2.779554,16.059265,16.715292,0.005518,0.182007,0.510807,7.636000,22.552712

-2.269733,2.381981,4.970324,16.712351,-0.405100,0.311507,0.341604,7.636000,22.552712

-2.602640,-7.909418,8.649075,16.715292,0.064673,0.105798,0.367184,7.624000,22.552712

-1.829049,-2.343393,11.271621,16.721176,-0.592423,-0.100976,0.005061,7.620000,22.552712

0.209112,-2.587685,3.894960,16.703527,-0.116255,0.106598,-0.064485,7.624000,22.552712

-6.104159,2.755604,13.556469,16.688822,-0.471982,0.024794,-0.381576,7.620000,22.552712

3.437599,5.354200,11.800920,16.700586,0.255993,-0.184379,-0.615263,7.624000,23.426289

0.206717,3.874078,12.943344,16.706469,0.099313,0.382120,-0.523067,7.632000,23.426289

-0.226781,6.305023,7.635981,16.697645,0.157935,0.109262,-0.363456,7.640000,23.426289

1.842516,-0.369897,-0.013712,16.685881,-0.377122,-0.233408,-0.266997,7.636000,23.426289

-2.171537,2.990316,8.510163,16.691763,-0.119986,0.276068,-0.374914,7.636000,23.426289

3.102296,4.777000,9.101733,16.712351,0.440385,0.261679,-0.061021,7.636000,23.426289

0.261803,-1.258449,7.305468,16.694704,0.282106,-0.087120,-0.278188,7.644000,23.426289

1.971847,-3.521742,8.867022,16.682940,-0.303045,-0.407941,0.094326,7.640000,23.426289

-5.716166,-1.392570,17.685484,16.694704,-0.726454,-0.028765,0.200378,7.628000,23.426289

-2.758317,8.815003,15.484460,16.700586,0.247200,0.349612,0.467907,7.640000,23.426289

-1.872159,0.317474,11.247670,16.688822,-0.054702,-0.035960,0.324816,7.632000,23.426289

-6.120924,8.364739,9.360395,16.700586,-0.175943,0.369596,0.379708,7.632000,23.426289

6.412213,-4.326469,9.171188,16.700586,-0.345679,-0.450842,0.292574,7.636000,23.426289

0.532440,-4.120497,9.070598,16.709410,-0.485306,-0.019705,0.257135,7.640000,23.426289

-6.901700,2.714888,6.007368,16.700586,-0.331557,0.064230,0.048495,7.640000,23.426289

-0.617169,-0.269306,9.087363,16.682940,-0.234831,-0.161463,0.137227,7.636000,23.426289

0.666561,1.766461,12.277529,16.679998,0.396952,0.029857,0.012789,7.648000,23.426289

4.697379,6.343343,7.772497,16.685881,0.401482,0.128181,0.110314,7.644000,23.941928

-2.602640,-6.311940,10.251343,16.697645,-0.085878,-0.215022,-0.087401,7.640000,23.941928

1.334772,-2.443984,6.534272,16.709410,-0.519679,-0.467895,-0.191321,7.644000,23.941928

-0.974027,-1.919474,4.781117,16.688822,-0.164218,0.167618,-0.151618,7.648000,23.941928

-2.832562,2.013148,11.750625,16.709410,-0.155425,0.035186,-0.234755,7.640000,23.941928

-0.071105,6.328973,10.991404,16.691763,0.268783,0.234233,-0.069815,7.648000,23.941928

-3.064879,2.942415,2.541774,16.682940,0.463567,0.458328,-0.040770,7.656000,23.941928

-1.594337,1.852681,4.172782,16.703527,0.106508,-0.265384,0.007193,7.644000,23.941928

4.860240,0.868328,12.663127,16.691763,0.400949,0.078086,0.118841,7.656000,23.941928

-0.763265,-2.628400,7.154582,16.700586,0.060410,-0.199834,-0.146556,7.656000,23.941928

1.832936,1.062325,8.251501,16.688822,0.180851,-0.086321,0.057821,7.648000,23.941928

0.127682,-1.227314,11.879955,16.703527,0.020707,0.126050,-0.163876,7.644000,23.941928

-1.373995,-1.833254,6.859994,16.694704,0.154471,-0.008248,-0.215303,7.648000,23.941928

0.422269,2.746024,2.261557,16.688822,-0.020861,-0.033029,-0.250476,7.644000,23.941928

0.209112,-1.165043,8.960427,16.691763,-0.037649,-0.171056,-0.168406,7.648000,23.941928

2.522702,-5.401833,9.760364,16.688822,-0.212714,-0.304287,-0.103389,7.640000,23.941928

-3.649264,-1.893129,8.023974,16.688822,-0.200990,-0.119629,0.078339,7.640000,24.189040

-6.956786,7.974352,13.563655,16.694704,-0.267073,0.204390,0.189720,7.644000,24.189040

-0.238756,-3.545693,8.519743,16.703527,-0.118387,-0.288833,0.341604,7.636000,24.189040

0.364789,-1.481186,7.870693,16.700586,-0.246822,-0.279773,0.287512,7.636000,24.189040

-1.158444,-1.131513,10.567485,16.697645,-0.091741,-0.160931,0.334942,7.636000,24.189040

1.365907,0.559371,9.616662,16.685881,-0.150629,-0.012244,0.466574,7.644000,24.189040

-3.297196,-2.726596,7.346183,16.679998,-0.230567,0.145501,0.331744,7.640000,24.189040

-1.091383,4.281231,10.177097,16.694704,-0.187933,0.106331,0.322951,7.640000,24.189040

-1.429081,0.930599,10.213022,16.688822,0.026569,0.158292,0.145754,7.644000,24.189040

-4.022887,-1.035712,6.570197,16.688822,-0.385382,0.157226,-0.001867,7.640000,24.189040

1.198256,2.997501,15.482065,16.700586,-0.060831,-0.100177,0.049561,7.648000,24.189040

1.856886,5.339830,5.808581,16.697645,0.408143,0.256350,0.034106,7.648000,24.189040

-1.989516,4.470438,14.057029,16.685881,-0.580699,0.218778,-0.024249,7.636000,24.189040

5.030287,1.986803,12.821198,16.706469,-0.348344,0.128714,-0.106053,7.628000,24.189040

1.849701,2.532867,8.673024,16.685881,0.398817,0.672564,-0.009860,7.636000,24.189040

-2.109267,-2.410453,3.255490,16.685881,-0.057367,0.093008,-0.260868,7.628000,24.189040

0.891693,1.656290,9.245434,16.671175,-0.108528,-0.221684,-0.393300,7.632000,22.526771

-1.615892,-0.690829,2.563329,16.682940,-0.262277,-0.037292,-0.253674,7.632000,22.526771

-2.178722,-5.991007,10.375883,16.679998,-0.677159,-0.428992,-0.121508,7.624000,22.526771

-1.668583,1.838311,13.455878,16.691763,-0.081615,0.191333,-0.064485,7.640000,22.526771

-1.096173,-0.724360,5.858876,16.679998,-0.041912,-0.158266,0.062884,7.636000,22.526771

-2.327213,-0.611794,6.591752,16.691763,-0.039247,0.188935,0.262731,7.636000,22.526771

-0.119005,-1.102773,10.361513,16.677057,-0.066160,-0.163595,0.019717,7.632000,22.526771

-0.736920,3.004686,10.411809,16.671175,0.119564,0.083416,0.086066,7.628000,22.526771

1.023419,-3.622333,7.228827,16.682940,0.056946,-0.169191,0.066081,7.628000,22.526771

1.890416,-1.553036,9.116103,16.671175,-0.058699,-0.098578,-0.100191,7.636000,22.526771

-0.629144,3.438184,8.316167,16.682940,-0.151162,0.090876,-0.153750,7.636000,22.526771

1.229391,1.891002,7.207272,16.685881,-0.490368,0.144968,-0.300305,7.624000,22.526771

-3.237321,8.292890,10.184282,16.671175,-0.192996,0.220644,-0.317358,7.632000,22.526771

3.677101,4.587794,15.649716,16.665293,0.643163,0.106864,-0.487894,7.640000,22.526771

2.254459,-3.380436,-0.399310,16.659410,-0.175676,0.000279,-0.381043,7.636000,22.526771

-2.130822,0.659962,12.088323,16.665293,-0.357404,-0.076195,-0.342672,7.632000,22.526771

2.139498,0.597691,15.635346,16.659410,-0.362999,-0.126557,-0.446859,7.636000,22.526771

-1.824259,1.390443,15.249748,16.668234,0.095050,0.195063,-0.478035,7.640000,22.526771

-0.859066,7.588753,10.605805,16.662352,-0.026191,-0.006116,-0.341873,7.644000,21.655884

-0.787216,2.077813,10.282477,16.644705,-0.227636,0.166818,-0.337876,7.632000,21.655884

-1.287775,1.364097,10.409413,16.659410,0.046021,-0.109503,-0.245946,7.636000,21.655884

0.192347,3.392679,7.576105,16.665293,0.191243,-0.104707,-0.026381,7.644000,21.655884

-1.232689,6.709781,11.769785,16.671175,0.559760,0.205455,0.284048,7.648000,21.655884

-5.728141,-3.200810,13.566050,16.668234,-0.386714,-0.420998,0.341071,7.640000,21.655884

1.603014,5.770934,8.172465,16.665293,0.920817,0.032521,0.382905,7.656000,21.655884

-2.849328,9.116776,10.986613,16.662352,0.422799,-0.056477,0.446323,7.652000,21.655884

4.716539,-0.705199,5.794210,16.665293,0.453975,-0.219552,0.483628,7.648000,21.655884

-3.122360,-2.614030,11.417717,16.679998,0.038027,-0.575280,0.145487,7.644000,21.655884

1.658099,1.421578,5.207431,16.682940,0.269316,-0.123626,0.377842,7.636000,21.655884

-1.316515,-5.643730,9.096943,16.665293,0.594667,-0.161996,0.244611,7.648000,21.655884

1.684445,-4.343234,8.886181,16.653528,-0.294785,-0.518257,0.357325,7.644000,21.655884

-0.480653,-1.258449,2.496269,16.668234,-0.072822,-0.168392,0.297104,7.640000,21.655884

-1.230294,2.358031,12.236814,16.682940,-0.239361,-0.163862,0.286179,7.640000,21.655884

1.569484,2.920860,9.566367,16.659410,0.125426,0.299783,0.332011,7.644000,21.655884

3.020865,-3.744479,8.438313,16.641764,0.299426,-0.038891,0.118308,7.644000,21.655884

-0.236361,-0.903986,3.478227,16.668234,0.028967,0.151097,0.097257,7.648000,22.549525

-4.944970,-2.858322,3.681803,16.662352,-0.159156,0.084748,0.035172,7.644000,22.549525

-1.151259,-4.767152,13.043935,16.662352,-0.284926,-0.340793,0.030908,7.644000,22.549525

2.122733,2.259835,10.371094,16.671175,0.111570,0.007474,0.267793,7.644000,22.549525

0.410294,7.485767,3.277045,16.671175,0.112636,0.246491,0.036504,7.644000,22.549525

-2.044601,2.140084,12.730187,16.647646,0.203500,0.326429,-0.107386,7.632000,22.549525

3.691471,13.190704,8.632309,16.656469,0.347390,0.556653,0.204908,7.632000,22.549525

-3.618129,-2.494279,6.838439,16.653528,0.503803,0.581168,-0.300571,7.632000,22.549525

3.902233,0.245623,3.157294,16.662352,0.297828,-0.306686,-0.831631,7.624000,22.549525

5.054237,0.281549,8.275451,16.659410,0.188844,-0.195038,-0.753824,7.636000,22.549525

-1.366810,-4.810263,10.035790,16.656469,-0.308641,0.158824,-1.041870,7.628000,22.549525

-2.655331,-3.507372,12.737372,16.656469,-0.314770,-0.224882,-1.128470,7.628000,22.549525

-0.641119,3.900423,7.621611,16.653528,0.135818,0.036518,-0.996038,7.636000,22.549525

-1.323700,0.331844,9.676538,16.671175,-0.053903,-0.062872,-1.037073,7.628000,22.549525

1.265316,-0.005854,8.615544,16.644705,0.148875,-0.136416,-0.900644,7.632000,22.549525

1.126405,7.342066,6.675578,16.650587,0.664746,-0.129222,-0.373848,7.632000,22.549525

-3.371442,3.189102,16.337086,16.656469,0.155004,0.253685,-0.061021,7.636000,22.549525

-3.376232,1.785621,9.451406,16.653528,0.404413,-0.045019,-0.021052,7.636000,22.549525

-0.171696,-0.345946,7.504255,16.653528,-0.150096,-0.226747,0.058354,7.616000,21.000871

-2.514025,3.035821,13.834291,16.659410,0.288501,-0.240336,-0.030112,7.624000,21.000871

2.675983,-0.482463,8.828701,16.638823,0.080128,-0.241136,0.081003,7.628000,21.000871

-1.764384,-2.204482,9.537626,16.647646,-0.224705,-0.062073,0.274721,7.616000,21.000871

-0.983607,5.833204,12.790063,16.653528,0.120097,-0.001586,0.543049,7.616000,21.000871

-2.698441,5.093143,7.846742,16.647646,0.322342,0.044246,0.560902,7.624000,21.000871

-0.262706,-0.983022,10.042975,16.665293,0.088388,-0.222217,0.595809,7.616000,21.000871

3.459154,3.488480,10.996194,16.647646,0.096116,-0.266183,0.684274,7.620000,21.000871

-3.986962,4.391402,9.817844,16.650587,-0.365397,0.288059,0.468706,7.620000,21.000871

-5.708981,4.377032,13.077465,16.650587,-0.333156,0.088745,0.256336,7.616000,21.000871

4.304596,7.286981,12.505055,16.656469,0.257858,0.224108,0.257934,7.632000,21.000871

3.483104,4.515944,7.207272,16.629999,0.315148,0.372527,0.232354,7.628000,21.000871

-1.120123,3.553145,6.548642,16.644705,0.172590,0.114858,0.068213,7.616000,21.000871

-2.652936,2.257440,6.979745,16.641764,-0.233232,0.233434,0.015720,7.612000,21.000871

0.558785,-1.917079,21.524700,16.644705,-0.123183,-0.026101,-0.150819,7.616000,21.000871

0.213903,-1.256054,10.392649,16.635881,-0.285992,0.140439,-0.150819,7.612000,21.000871

-5.318593,8.362345,4.352409,16.644705,0.017776,0.407700,-0.209174,7.608000,21.000871

1.957477,1.476663,15.764677,16.635881,-0.093339,0.106065,-0.337343,7.608000,21.000871

-0.332162,-0.008249,8.055109,16.632940,-0.067759,0.014135,-0.443128,7.616000,21.000871

-4.727023,-2.681091,8.234735,16.638823,-0.422687,-0.136949,-0.445527,7.608000,21.000871

0.343234,3.519615,9.001143,16.624117,-0.020595,-0.057277,-0.448991,7.616000,19.580631

0.673746,4.317157,8.225156,16.647646,-0.050972,0.010671,-0.251808,7.616000,19.580631

-1.841024,0.485125,10.059741,16.629999,0.253062,-0.038358,-0.270727,7.616000,19.580631

3.329823,2.226305,6.493556,16.644705,0.374036,-0.082857,-0.249410,7.620000,19.580631

-1.002767,1.455108,6.874364,16.638823,0.245335,0.036518,-0.065285,7.624000,19.580631

-5.110226,4.645274,9.391530,16.632940,0.018575,0.009073,-0.348268,7.628000,19.580631

1.571879,-4.228273,10.031001,16.635881,-0.531670,-0.593932,-0.144690,7.608000,19.580631

-0.293842,6.439144,8.893367,16.635881,0.276511,0.570509,-0.148687,7.616000,19.580631

-1.292565,2.717283,7.104286,16.621176,-0.089342,-0.071932,-0.161211,7.600000,19.580631

-0.372877,4.286021,11.046489,16.629999,-0.131177,0.098071,-0.087667,7.612000,19.580631

-3.728300,3.004686,11.554234,16.615294,-0.175410,0.048242,-0.256871,7.612000,19.580631

-1.572782,4.010594,10.011841,16.638823,-0.107728,-0.260055,-0.325086,7.620000,19.580631

2.872374,11.186072,16.116745,16.624117,0.283439,-0.100976,-0.370118,7.628000,19.580631

3.607645,1.553304,7.679091,16.627058,0.204832,-0.051148,-0.136697,7.628000,19.580631

-2.669701,3.191497,10.368698,16.612352,-0.118120,0.127915,-0.089799,7.632000,19.580631

-4.049232,2.451436,11.432087,16.618235,-0.000877,-0.138015,-0.182262,7.640000,19.580631

0.898878,3.567515,6.783354,16.615294,0.421999,-0.105506,-0.054093,7.644000,19.580631

-3.752250,5.421261,10.215417,16.591763,0.242670,0.165752,-0.063419,7.640000,19.580631

-1.716483,4.163876,10.483660,16.624117,0.463034,0.006674,0.017852,7.644000,19.580631

0.731227,3.019056,10.160332,16.632940,0.590936,-0.175586,0.030908,7.648000,20.244611

1.001864,4.757840,9.626243,16.615294,0.277843,-0.289099,0.296038,7.652000,20.244611

1.672469,0.803663,10.105247,16.603529,-0.069358,-0.201433,0.692801,7.648000,20.244611

-9.356596,2.243070,13.676220,16.600588,-0.191397,0.106864,0.685607,7.652000,20.244611

-0.578849,2.827454,9.147239,16.629999,0.066272,-0.289099,0.685340,7.644000,20.244611

-0.636329,0.200118,12.548166,16.621176,-0.015532,-0.156401,0.785264,7.648000,20.244611

0.065411,0.154613,15.405424,16.624117,0.074799,-0.115099,0.886786,7.652000,20.244611

-2.684071,1.498219,10.062136,16.624117,0.024970,-0.004784,0.801784,7.648000,20.244611

-2.937943,3.251373,8.495793,16.621176,0.259723,0.029590,0.588081,7.652000,20.244611

-1.151259,2.372401,10.064531,16.615294,0.180051,-0.033295,0.500149,7.660000,20.244611

-1.244664,1.665870,8.900552,16.612352,0.275445,-0.083390,0.422342,7.664000,20.244611

2.503541,5.229659,8.311377,16.609411,0.318612,0.063164,0.407686,7.668000,20.244611

0.956359,-0.465697,11.748230,16.612352,0.307420,0.018932,0.431401,7.672000,20.244611

-1.397946,-0.005854,7.542575,16.606470,0.228014,0.056503,0.342137,7.668000,20.244611

1.684445,2.607113,10.921947,16.582939,0.410275,-0.009047,0.260599,7.672000,20.244611

-0.674650,-2.602055,8.112590,16.600588,-0.548191,-0.042355,0.167071,7.664000,20.244611

2.156263,4.726705,10.751902,16.606470,0.046820,0.232901,0.429270,7.660000,23.481353

-0.643515,2.573582,8.376042,16.600588,0.199769,0.317903,0.146020,7.656000,23.481353

1.744320,2.683753,10.553115,16.579998,0.233877,0.152429,0.008525,7.656000,23.481353

-0.044760,1.795201,10.148356,16.582939,-0.563912,0.118322,0.200112,7.652000,23.481353

-4.937785,9.385018,-0.116697,16.603529,0.058011,0.530007,0.144155,7.652000,23.481353

0.963544,-1.689553,14.035473,16.591763,-0.807725,-0.163862,0.087665,7.652000,23.481353

0.228273,10.120289,18.672232,16.591763,0.304489,0.058102,0.041567,7.656000,23.481353

1.270106,-0.738730,8.567643,16.574116,0.084125,0.341351,-0.070880,7.668000,23.481353

-0.262706,2.207144,6.416916,16.603529,-0.030454,0.063164,0.319754,7.660000,23.481353

-1.345255,6.542130,12.459551,16.588821,0.082526,0.306978,0.227824,7.664000,23.481353

-0.557294,6.144557,8.785590,16.582939,0.334599,0.288059,0.352529,7.660000,23.481353

-2.315238,-2.039225,17.168159,16.588821,0.338063,0.438877,0.211836,7.664000,23.481353

-4.226464,3.797437,-1.512994,16.568233,-0.338485,-0.011179,0.155879,7.656000,23.481353

5.868544,1.191656,10.914762,16.594706,0.432658,0.274736,0.171334,7.652000,23.481353

-3.194210,-7.926183,7.415639,16.591763,0.164596,-0.210226,-0.167606,7.660000,23.481353

1.054554,7.337276,10.031001,16.588821,0.257858,0.005076,0.035438,7.664000,23.481353

-0.959657,-4.168397,6.886340,16.600588,-0.650512,-0.341592,0.033306,7.660000,23.481353

-5.788016,1.507799,13.901352,16.585880,-0.320365,0.543596,0.120706,7.652000,22.758597

-1.560807,6.573265,9.602292,16.582939,-0.108261,0.029057,0.083401,7.648000,22.758597

0.786312,14.613346,10.387858,16.585880,0.236008,0.562249,0.530259,7.648000,22.758597

5.063817,5.615257,4.884103,16.579998,0.659950,0.158558,0.666688,7.660000,22.758597

-1.488956,-5.066530,5.226591,16.579998,-0.050439,-0.035427,0.613129,7.660000,22.758597

-2.775082,-0.456117,5.207431,16.577057,-0.404834,0.035186,0.324284,7.652000,22.758597

-0.777636,4.935072,7.647956,16.579998,0.259191,0.387716,0.096458,7.656000,22.758597

1.969452,6.676251,9.516071,16.588821,0.189377,0.190267,-0.072746,7.664000,22.758597

2.204164,6.297838,12.751743,16.582939,0.240005,0.617673,-0.324553,7.660000,22.758597

4.429137,11.978825,12.713423,16.550587,0.294097,0.230236,-0.340807,7.664000,22.758597

5.130877,4.257281,8.076665,16.571175,0.728964,0.478313,-0.413551,7.668000,22.758597

1.315612,1.754486,6.467211,16.556469,0.260789,0.057302,-0.386638,7.668000,22.758597

-0.784821,-1.866784,7.513834,16.562351,0.042557,0.038916,-0.650170,7.664000,22.758597

-0.696205,4.544683,9.240644,16.556469,0.197638,0.161223,-0.991242,7.664000,22.758597

0.187557,2.896910,5.784631,16.565292,0.023904,0.129247,-1.148721,7.664000,22.758597

1.866466,-2.079941,12.311059,16.568233,0.118498,0.162022,-1.045600,7.664000,22.758597

-0.566874,3.452554,16.655624,16.565292,-0.136506,0.201725,-0.754889,7.668000,22.758597

-4.473151,1.160521,8.591594,16.553528,0.072134,0.041581,-0.468442,7.668000,22.758597

-5.431159,4.379427,8.682605,16.553528,-0.013933,0.031455,-0.383441,7.668000,22.758597

-0.801586,3.335198,10.897998,16.568233,0.233877,-0.219019,-0.339475,7.672000,22.758597

-0.609984,2.444251,9.204719,16.547646,0.164063,-0.160664,-0.200115,7.672000,22.758597

-2.322423,0.916229,10.876443,16.553528,0.184848,-0.117497,0.008525,7.660000,22.758597

0.609081,1.141361,8.332932,16.550587,0.173923,-0.322940,0.226492,7.664000,22.758597

1.217416,-1.148278,14.478552,16.553528,-0.012068,-0.193972,0.345867,7.664000,22.758597

-3.134335,7.612703,5.837321,16.544704,0.132088,0.036518,0.454850,7.660000,22.758597

-2.135612,3.023846,8.040739,16.538822,0.024704,0.053572,0.470038,7.656000,22.758597

-3.603759,2.609508,13.525334,16.532940,-0.062696,0.077020,0.325083,7.652000,22.758597

1.212626,3.783067,8.277846,16.544704,0.176587,0.122053,0.184657,7.656000,22.758597

0.355209,4.695570,9.817844,16.538822,0.005252,0.174279,0.131631,7.648000,22.758597

-0.801586,2.116133,11.999706,16.538822,0.003920,0.093008,0.009858,7.652000,22.758597

0.774337,-0.338761,11.628479,16.541763,-0.093339,0.088212,-0.068216,7.648000,22.758597

-1.611102,2.077813,7.128236,16.541763,0.245867,0.335489,-0.253141,7.648000,22.758597

-1.874555,4.238121,1.315524,16.532940,0.103576,-0.170523,-0.420746,7.652000,22.758597

-0.327372,0.298314,5.978627,16.535881,0.002054,-0.065803,-0.191321,7.644000,22.758597

0.922828,-1.600937,14.394726,16.532940,-0.269471,-0.163862,-0.261934,7.644000,22.758597

0.561180,11.904578,4.347619,16.535881,0.237607,0.359204,-0.309897,7.652000,11.159909

-1.211134,-1.500346,13.146921,16.535881,-0.363266,-0.015975,-0.074344,7.652000,11.159909

-3.833680,3.433394,8.498188,16.535881,-0.301180,-0.018906,-0.401560,7.656000,11.159909

-1.287775,5.627233,12.928974,16.535881,-0.159955,0.067161,-0.453787,7.656000,11.159909

-1.146469,5.663157,10.569880,16.532940,0.128890,0.251287,-0.713854,7.656000,11.159909

0.920433,3.088511,9.350815,16.529999,0.006851,-0.083656,-0.680547,7.656000,11.159909

1.576669,1.737720,9.894485,16.532940,-0.247888,-0.119096,-0.686942,7.644000,11.159909

-0.614774,3.157967,14.576748,16.529999,0.202701,0.121253,-0.767946,7.644000,11.159909

-2.399064,3.996224,3.356081,16.535881,0.368973,-0.183047,-0.820173,7.652000,11.159909

-1.172814,-1.404545,8.119775,16.529999,-0.234031,-0.649090,-0.620592,7.652000,11.159909

0.410294,-2.376923,10.969849,16.521175,0.003387,-0.345856,-0.437000,7.648000,11.159909

-1.029113,-1.141093,7.034831,16.509411,-0.156491,-0.475623,-0.394632,7.648000,11.159909

-4.537817,2.595137,8.057505,16.527058,0.203233,-0.215822,0.041567,7.648000,11.159909

1.155145,3.186707,8.165280,16.529999,0.184315,-0.323206,0.241680,7.648000,11.159909

-3.249296,6.199642,5.890011,16.515293,-0.206586,-0.043687,0.433000,7.648000,11.159909

-0.947682,-1.438075,10.737532,16.524117,0.265319,0.123651,0.600072,7.648000,11.159909

0.405504,2.585557,9.951965,16.529999,-0.122650,-0.380496,0.462578,7.656000,11.159909

-4.985685,2.228699,7.849137,16.521175,-0.351541,-0.011445,0.265928,7.648000,11.159909

-0.609984,4.345897,10.270503,16.512352,0.156869,-0.065537,0.126302,7.648000,21.263610

0.932408,3.991434,4.587121,16.524117,-0.042978,0.030390,-0.029845,7.652000,21.263610

0.831818,3.081326,10.414204,16.518234,0.299959,0.169749,-0.105254,7.656000,21.263610

-0.404013,6.034386,5.619374,16.509411,0.258924,0.353342,-0.024782,7.648000,21.263610

0.453404,2.286180,11.180610,16.509411,0.174722,0.012004,0.023181,7.652000,21.263610

-1.199159,4.393797,7.892248,16.509411,0.103310,0.118056,0.138026,7.656000,21.263610

1.598224,6.489439,5.528364,16.509411,0.905362,0.159890,0.202510,7.660000,21.263610

-0.044760,-1.538666,11.606923,16.503529,0.043089,-0.140679,0.002130,7.656000,21.263610

1.777850,4.147110,8.658654,16.509411,-0.132776,0.002411,-0.015190,7.648000,21.263610

-1.278195,3.117252,11.923066,16.503529,-0.208451,0.180408,-0.010127,7.644000,21.263610

-2.233808,5.090748,10.157937,16.518234,-0.089076,0.172414,-0.134831,7.644000,21.263610

0.455800,7.464212,7.389294,16.503529,0.495543,0.193465,-0.064485,7.648000,21.263610

1.746715,-0.688434,11.309941,16.515293,-0.041646,0.006674,0.020783,7.644000,21.263610

-4.727023,0.034862,10.747111,16.506470,-0.498096,0.112460,-0.104988,7.640000,21.263610

-1.809889,0.322264,14.976716,16.509411,-0.430947,0.151097,-0.102589,7.656000,21.263610

-7.260953,0.820428,9.860954,16.491764,-0.142368,0.173480,-0.162011,7.656000,21.263610

-2.621801,-0.458512,8.215575,16.497646,-0.175943,-0.037825,-0.156948,7.660000,21.263610

-2.937943,1.562884,7.748547,16.488823,-0.129845,-0.079926,-0.599009,7.660000,21.263610

-1.045878,1.292247,9.020303,16.494705,0.097448,-0.155601,-0.500418,7.656000,21.203931

1.344352,5.572147,5.217011,16.488823,0.344725,-0.075929,-0.507346,7.648000,21.203931

0.355209,-2.214062,12.042817,16.494705,-0.061630,-0.099111,-0.391968,7.652000,21.203931

-4.604877,2.305340,10.601015,16.503529,-0.057367,-0.119362,-0.397297,7.656000,21.203931

-3.833680,2.267020,7.873087,16.488823,0.143546,-0.187310,-0.382908,7.656000,21.203931

4.709354,5.038058,12.766113,16.491764,0.249331,-0.238205,0.078872,7.656000,21.203931

0.486935,3.172337,7.307863,16.485882,0.203500,-0.220352,0.113512,7.652000,21.203931

-3.024164,-0.815370,10.545930,16.468235,0.294364,-0.202499,0.128700,7.652000,21.203931

0.704881,-0.769865,6.527087,16.480000,0.304223,-0.413537,0.089264,7.652000,21.203931

2.740648,-1.524296,4.814648,16.485882,-0.372326,-0.452174,0.189986,7.648000,21.203931

-5.172496,3.419024,10.488449,16.477058,-0.308641,0.006141,0.279784,7.644000,21.203931

-2.049391,3.962693,8.119775,16.488823,-0.074154,-0.196370,0.158277,7.648000,21.203931

1.531163,-2.170951,17.347786,16.497646,-0.610809,-0.227813,0.330679,7.640000,21.203931

-2.080526,-0.228591,9.034673,16.456469,-0.271336,-0.025301,0.301368,7.660000,21.203931

-0.016019,-2.925383,8.864626,16.471176,-0.738445,-0.018906,0.416746,7.648000,21.203931

-8.266862,-2.154186,14.054633,16.482941,-0.404301,0.304579,0.293374,7.648000,21.203931

-3.474427,1.035980,11.463223,16.482941,-0.251085,0.273137,0.214767,7.652000,21.203931

-2.035021,2.628668,1.519101,16.474117,0.145944,0.136708,-0.038905,7.656000,21.203931

2.093993,-8.304597,15.846108,16.471176,-0.281728,-0.376499,0.032507,7.648000,21.203931

-3.555858,-0.573473,10.759087,16.471176,-0.495165,-0.015442,0.171334,7.648000,21.203931

-0.526159,10.970521,7.291098,16.465292,0.350587,0.397042,0.101521,7.644000,21.203931

1.186280,2.413116,6.031318,16.480000,0.432391,0.134843,0.215833,7.644000,21.203931

-3.227741,-2.185322,8.067084,16.471176,-0.016065,-0.184113,0.283248,7.648000,21.203931

-0.102240,3.452554,5.212221,16.462351,-0.187134,-0.115099,0.458048,7.644000,21.203931

0.898878,6.719361,10.232183,16.468235,0.325007,0.359471,0.612329,7.644000,21.203931

-1.819469,7.306141,11.113549,16.459410,-0.222307,0.251553,0.324816,7.648000,21.203931

1.945502,9.617335,8.586803,16.453527,0.218955,0.544929,0.363187,7.652000,21.203931

-1.546437,11.128592,10.395043,16.468235,0.323142,0.236631,-0.063419,7.660000,21.203931

2.996915,4.489598,11.408137,16.465292,0.042290,0.010938,-0.130035,7.652000,21.203931

-1.764384,4.786581,10.569880,16.459410,-0.254016,0.453798,-0.362657,7.648000,21.203931

-0.734525,5.732613,11.975757,16.453527,-0.308108,0.307244,-0.578491,7.640000,21.203931

4.479433,4.175850,10.411809,16.456469,0.386293,0.232635,-0.638978,7.640000,21.203931

-0.799191,-0.796210,10.009445,16.447645,0.007117,-0.076195,-0.853214,7.636000,21.203931

0.700091,1.891002,9.798684,16.462351,-0.056567,-0.003185,-1.018687,7.636000,21.203931

-1.826654,4.163876,5.240961,16.450586,0.440119,-0.038624,-1.243582,7.648000,21.203931

3.226837,1.086275,5.298441,16.447645,0.409475,-0.163062,-1.212139,7.644000,21.203931

4.615949,-3.672629,12.471525,16.447645,-0.284126,-0.427127,-0.707726,7.644000,21.203931

-6.307735,4.822506,15.644926,16.453527,-0.032586,-0.030097,-0.491092,7.648000,21.203931

-5.119806,12.426693,7.834767,16.444704,0.194707,0.223308,-0.158546,7.640000,10.479349

0.728832,6.817557,8.040739,16.441763,0.503803,0.247556,-0.009328,7.640000,10.479349

1.600619,2.226305,6.129513,16.465292,-0.002209,-0.824156,-0.358127,7.640000,10.479349

0.752782,6.896593,9.645403,16.447645,0.260789,-0.400214,-0.186525,7.648000,10.479349

-1.941615,2.010753,11.736255,16.482941,-0.058433,-0.380229,-0.119110,7.644000,10.479349

-0.178881,4.106395,6.972560,16.465292,-0.041113,-0.379696,-0.007729,7.652000,10.479349

-0.660280,2.609508,8.191626,16.441763,-0.618537,-0.391154,0.227824,7.640000,10.479349

-1.582362,-0.444142,11.891931,16.450586,-0.181272,-0.261653,0.226225,7.652000,10.479349

-1.900900,7.792330,6.165439,16.432940,0.454774,0.129514,0.345334,7.656000,10.479349

0.874928,1.098250,6.095983,16.421175,-0.125315,-0.255525,0.576890,7.652000,10.479349

-1.309330,4.767420,9.051437,16.424116,0.280508,-0.167592,0.708789,7.648000,10.479349

3.222047,-2.836767,9.844189,16.424116,-0.293986,-0.408474,0.524663,7.648000,10.479349

-2.454149,-0.166320,8.016789,16.409410,-0.318767,-0.015442,0.712786,7.648000,10.479349

-4.506681,0.185748,15.529965,16.424116,-0.371526,0.063697,0.743962,7.652000,10.479349

-3.687584,8.695252,8.471843,16.444704,0.064939,0.438877,0.725576,7.652000,10.479349

4.175265,-0.276491,10.665681,16.429998,0.298094,-0.189442,0.648835,7.652000,10.479349

1.734740,2.204749,2.730981,16.424116,-0.153027,0.050907,0.784464,7.652000,10.479349

-4.992870,-2.899037,20.760689,16.444704,-0.623067,0.124184,0.725843,7.656000,10.479349

4.345311,5.924215,14.320480,16.418234,0.000722,0.203857,0.573160,7.660000,21.089830

-2.583480,12.512914,-2.344066,16.427057,0.813166,0.742377,0.555839,7.660000,21.089830

0.381554,0.077972,7.865902,16.438822,-0.255881,-0.467362,0.145754,7.656000,21.089830

-0.506998,1.785621,12.603251,16.424116,-0.418423,0.263278,0.219031,7.652000,21.089830

-1.941615,3.119647,16.382591,16.415293,0.365243,0.383985,0.060486,7.660000,21.089830

-3.694769,7.452237,-1.853087,16.427057,0.398284,0.183872,-0.280320,7.664000,21.089830

6.349943,-5.325192,12.711027,16.424116,-0.325961,-0.286967,-0.204645,7.648000,21.089830

2.173028,1.474268,9.530441,16.415293,0.380431,0.211850,-0.365055,7.656000,21.089830

-2.188302,3.351964,2.613625,16.421175,0.188045,0.029324,-0.432736,7.652000,21.089830

-2.126032,5.181759,14.720448,16.406469,-0.137306,0.339752,-0.724779,7.652000,21.089830

3.217257,7.009159,7.432404,16.421175,-0.306776,0.053305,-0.728510,7.644000,21.089830

0.439034,0.813243,14.296531,16.406469,0.250397,0.350677,-0.596877,7.640000,21.089830

1.696420,4.221356,3.540497,16.406469,0.103310,-0.205963,-0.661628,7.632000,21.089830

0.300123,1.194051,3.777604,16.421175,-0.173012,-0.200900,-0.519870,7.636000,21.089830

2.024537,-1.203363,16.363432,16.406469,-0.260411,-0.180382,-0.395432,7.632000,21.089830

0.659376,8.621007,4.005131,16.412352,0.127292,0.024527,-0.304035,7.640000,21.089830

-0.837511,4.048914,15.642531,16.406469,-0.279863,0.135909,0.028777,7.652000,21.089830

-0.849486,3.881263,8.874207,16.409410,0.167527,0.008540,-0.022917,7.660000,21.089830

-1.625473,5.696688,6.761798,16.415293,-0.812255,-0.426594,0.054623,7.652000,21.089830

0.343234,1.210816,19.579943,16.418234,0.520324,0.187602,0.045297,7.648000,21.089830

1.121615,7.722875,-0.801673,16.403528,0.096382,-0.155601,0.115110,7.648000,21.089830

-0.102240,-2.616425,20.679258,16.418234,-0.512751,0.062099,0.517469,7.644000,21.089830

-2.739156,9.488004,10.696816,16.400587,0.355916,0.335489,0.722911,7.644000,21.089830

-0.942892,10.237645,7.231222,16.409410,0.634903,0.211051,0.408219,7.652000,21.089830

3.308268,4.736285,0.735929,16.397646,0.131555,0.086613,0.650700,7.652000,21.089830

-1.127308,-6.656823,16.650835,16.382940,-0.453863,-0.266450,0.705858,7.644000,21.089830

-0.691415,3.397469,12.011682,16.394705,-0.208718,0.092742,0.711187,7.644000,21.089830

-4.401300,2.825059,5.533154,16.385881,-0.133042,0.235566,0.426072,7.644000,21.089830

0.280963,-3.236735,11.786550,16.379999,0.008449,0.067961,0.333610,7.644000,21.089830

4.201610,4.185431,11.463223,16.394705,-0.080283,0.110328,-0.021585,7.652000,21.089830

-1.510512,0.647987,5.779840,16.382940,-0.424552,0.416494,-0.179331,7.640000,21.089830

-1.761989,15.437232,6.723478,16.400587,0.008183,0.454331,-0.426608,7.652000,21.089830

0.724042,0.401300,13.841476,16.382940,-0.321698,0.443673,-0.219566,7.640000,21.089830

-4.080368,4.027359,10.442944,16.397646,0.024704,0.226506,-0.369585,7.644000,21.089830

-0.339347,5.845179,10.950688,16.382940,0.097448,0.044512,-0.371983,7.644000,21.089830

-1.584757,2.535262,15.953884,16.382940,0.392155,0.148166,-0.398896,7.652000,21.089830

-0.408803,3.933954,1.224513,16.379999,0.003387,-0.197436,-0.182262,7.652000,21.089830

-3.915111,-3.181650,9.056228,16.403528,-0.030454,-0.021038,-0.216369,7.652000,10.446254

-2.099686,-2.479909,12.114668,16.412352,-0.091474,-0.325604,-0.261401,7.644000,10.446254

2.113153,0.473150,6.651628,16.397646,-0.000610,-0.256324,-0.273125,7.648000,10.446254

0.403109,1.019215,9.017907,16.382940,0.332734,-0.211558,-0.388237,7.640000,10.446254

-0.284262,1.057535,8.632309,16.391764,0.318878,-0.144943,-0.407156,7.648000,10.446254

2.261644,5.837994,8.780800,16.385881,0.084391,-0.101776,-0.117245,7.644000,10.446254

-2.688861,7.586359,8.031159,16.394705,-0.111725,0.119921,-0.081805,7.652000,10.446254

1.509608,10.026883,10.062136,16.397646,0.550967,0.228371,-0.053560,7.648000,10.446254

-2.049391,5.679923,10.833332,16.379999,0.135019,0.592625,0.026645,7.644000,10.446254

2.611317,4.333922,6.522296,16.385881,0.523521,-0.141212,-0.084470,7.648000,10.446254

1.818566,0.834798,7.635981,16.394705,0.032964,-0.162529,-0.235021,7.644000,10.446254

-1.876950,3.531590,7.671906,16.385881,-0.166616,-0.248863,-0.213971,7.640000,10.446254

1.514398,-0.494438,12.181728,16.385881,-0.232699,-0.138548,-0.096994,7.648000,10.446254

-0.724945,4.147110,7.863508,16.397646,-0.189266,0.064497,-0.000268,7.652000,10.446254

-2.298473,-3.064294,11.966176,16.359411,-0.408831,-0.076728,-0.090865,7.640000,10.446254

-1.754804,0.612061,14.365986,16.368235,-0.536466,-0.078860,-0.021052,7.648000,10.446254

-3.392997,1.867052,8.445498,16.382940,-0.334488,0.445538,0.057821,7.648000,10.446254

-4.614457,0.034862,10.514794,16.382940,-0.284926,-0.006649,-0.016788,7.644000,10.446254

1.066530,0.906649,14.557588,16.368235,-0.424286,-0.417800,0.176663,7.648000,10.446254

-3.361862,11.308219,6.208549,16.371176,0.313815,0.758898,0.340271,7.644000,20.889034

3.935763,5.009317,11.705119,16.379999,0.285037,-0.086588,0.198513,7.644000,20.889034

2.836449,3.476505,7.889853,16.368235,0.382829,0.103933,0.299502,7.652000,20.889034

-1.110543,1.330567,9.817844,16.356470,0.124627,-0.029831,0.095925,7.652000,20.889034

2.276014,0.636012,10.457314,16.374117,0.024704,0.079685,-0.024782,7.644000,20.889034

-3.543883,5.296720,6.548642,16.365294,-0.033385,0.212383,-0.043701,7.652000,20.889034

-0.099845,3.205868,6.469606,16.368235,0.433990,0.149765,-0.121775,7.652000,20.889034

-2.264943,6.537340,-0.171783,16.371176,0.456906,0.060233,0.013322,7.656000,20.889034

5.708077,3.225028,16.852016,16.362352,0.582143,-0.219286,-0.150020,7.660000,20.889034

-2.537975,0.741392,6.246870,16.368235,0.112370,-0.119096,-0.152418,7.660000,20.889034

-1.323700,-0.650114,13.697776,16.371176,-0.360868,-0.145209,-0.196118,7.648000,20.889034

-0.356112,3.926768,3.916515,16.377058,0.174455,0.099936,-0.332547,7.656000,20.889034

-1.678163,-4.197138,10.948293,16.368235,-0.322231,-0.430591,-0.282985,7.652000,20.889034

-2.837352,4.781791,4.405099,16.359411,-0.429615,-0.397549,-0.335211,7.636000,20.889034

5.811063,-0.676459,13.989968,16.359411,1.097215,0.507624,-0.217435,7.644000,20.889034

-1.831444,5.675133,3.954836,16.356470,0.259457,-0.719969,-0.357328,7.648000,20.889034

-0.784821,2.932835,7.968888,16.379999,-0.062163,-0.154802,0.044498,7.636000,20.889034

1.576669,3.466924,8.227551,16.377058,0.172590,-0.280839,0.090329,7.644000,20.889034

-1.163234,-2.357763,13.743281,16.388823,-0.097603,-0.288833,0.083934,7.644000,20.889034

-2.494864,2.793924,2.565724,16.371176,0.058544,-0.127623,0.130565,7.640000,20.889034

0.807867,2.262230,6.859994,16.377058,-0.116788,-0.201966,0.273922,7.644000,20.889034

1.480868,0.257598,7.873087,16.362352,-0.609477,-0.122826,0.433800,7.640000,20.889034

-0.890202,5.196129,11.290781,16.371176,0.037227,0.017066,0.215034,7.644000,20.889034

-2.830167,0.140242,6.392965,16.368235,-0.404567,-0.013577,0.100455,7.656000,20.889034

-2.123636,-0.295651,13.190031,16.368235,-0.273201,-0.338128,0.115643,7.652000,20.889034

3.571720,-2.781681,8.086245,16.385881,-0.002209,-0.103375,0.247009,7.656000,20.889034

-6.101764,1.622760,11.844030,16.385881,0.042290,0.252886,0.310161,7.648000,20.889034

-2.054181,2.326895,11.091994,16.371176,-0.202589,-0.030630,0.252605,7.652000,20.889034

-2.320028,4.283627,12.179333,16.371176,-0.200724,0.438344,0.403689,7.656000,20.889034

-1.026718,4.903936,6.354645,16.353529,0.277576,0.317636,0.672284,7.648000,20.889034

1.231786,1.644315,9.393926,16.368235,0.534446,0.020264,0.770342,7.656000,20.889034

1.100060,5.988880,-2.454237,16.368235,0.570952,0.189734,0.701594,7.652000,20.889034

1.155145,-2.108681,9.322075,16.353529,0.083858,-0.327736,0.508942,7.652000,20.889034

3.856727,-1.428495,9.597502,16.353529,0.250664,-0.092183,0.396495,7.656000,20.889034

-1.668583,1.673055,3.004013,16.359411,-0.259079,0.149232,0.131098,7.652000,20.889034

-2.698441,-3.299006,14.732424,16.359411,-0.605214,-0.145209,-0.059422,7.644000,20.889034

-4.889884,6.642721,11.199770,16.359411,-0.199391,0.979262,-0.069548,7.648000,20.889034

-3.551068,2.781949,16.777771,16.353529,-0.027257,0.215314,-0.540387,7.644000,20.889034

-1.330885,2.104158,6.469606,16.350588,0.265053,0.330959,-0.798323,7.648000,20.889034

2.642452,3.335198,5.442143,16.359411,-0.235630,-0.168125,-0.905174,7.644000,20.889034

1.777850,0.980894,12.986455,16.356470,-0.199125,0.084481,-0.903842,7.644000,20.889034

-2.097291,0.772528,10.699211,16.371176,-0.409097,0.085281,-0.640577,7.644000,20.889034

-4.645592,1.780831,7.374924,16.374117,-0.411762,0.035186,-0.579824,7.648000,20.889034

0.345629,4.889566,12.071557,16.347647,0.295163,-0.143610,-0.634449,7.648000,20.889034

1.490448,1.148546,5.154740,16.344706,0.251197,-0.266183,-0.633116,7.648000,20.889034

0.503700,-0.784235,12.339800,16.359411,0.161132,-0.184646,-0.472972,7.648000,20.889034

-1.450636,2.226305,8.002419,16.347647,-0.208718,-0.197702,-0.414883,7.644000,20.889034

-1.496141,2.173614,6.153463,16.344706,-0.182338,-0.288566,-0.233689,7.632000,20.889034

0.453404,-0.245356,15.738332,16.332939,-0.286258,-0.276842,-0.056225,7.624000,20.889034

-3.115175,4.369847,11.628479,16.353529,-0.236696,-0.133751,-0.035974,7.628000,20.889034

-2.578690,6.149347,15.003061,16.350588,0.162998,0.030656,-0.000801,7.632000,20.889034

1.313216,10.172979,6.127119,16.350588,0.441184,0.045844,0.050893,7.640000,20.889034

0.451009,1.680240,15.101257,16.344706,0.002321,-0.188110,-0.265664,7.628000,20.889034

4.122574,2.880145,5.300837,16.338821,-0.246289,-0.413537,-0.285916,7.632000,20.889034

-2.997819,-1.888339,9.293335,16.347647,-0.460258,-0.142811,-0.298972,7.636000,20.889034

-1.261430,1.136571,7.923383,16.350588,-0.105863,-0.242468,-0.298173,7.640000,6.904067

1.507213,-0.144765,4.800278,16.338821,-0.227903,-0.369038,-0.098326,7.640000,6.904067

-0.293842,0.267179,8.718530,16.341763,-0.263076,-0.293096,0.122571,7.640000,6.904067

-1.474586,0.477940,8.811935,16.344706,-0.151961,-0.160131,0.220363,7.636000,6.904067

-1.752409,3.083721,11.470407,16.329998,0.335665,-0.175053,0.491089,7.640000,6.904067

-0.823141,2.791529,6.598937,16.350588,0.142214,-0.076995,0.530259,7.644000,6.904067

-1.256639,-2.606845,11.925461,16.341763,0.111837,-0.029298,0.823901,7.640000,6.904067

-5.196446,0.037257,11.077624,16.335880,-0.146365,0.108197,0.843885,7.632000,6.904067

0.616266,2.008358,7.901828,16.338821,0.095050,-0.006116,0.503080,7.636000,6.904067

0.839003,2.398746,7.580895,16.344706,-0.082148,0.129780,0.234752,7.628000,6.904067

0.065411,6.043966,3.492597,16.329998,-0.197526,0.100469,-0.059955,7.632000,6.904067

3.669916,-2.147001,13.961227,16.329998,0.113169,-0.023436,-0.019453,7.636000,6.904067

0.357604,-1.857204,8.179650,16.338821,-0.410696,-0.090318,-0.267530,7.632000,6.904067

-1.184789,6.206827,10.236973,16.341763,0.245867,0.154827,-0.455919,7.644000,6.904067

-4.104318,5.763749,11.180610,16.341763,-0.123450,0.162288,-0.443128,7.640000,6.904067

-3.855236,6.630745,14.035473,16.327057,0.300759,0.326962,-0.387438,7.636000,6.904067

8.639581,-0.504018,8.112590,16.327057,0.306887,-0.161463,-0.190788,7.648000,6.904067

-6.997501,-1.359040,9.429851,16.321175,-0.537266,-0.170523,-0.215037,7.640000,6.904067

-6.269415,1.263507,12.612832,16.321175,-0.551655,-0.461500,-0.109517,7.632000,6.904067

0.098942,2.029913,10.395043,16.329998,0.486217,0.207854,0.106584,7.636000,20.244464

0.276173,-0.623769,6.292375,16.324116,0.312217,-0.184379,0.246210,7.648000,20.244464

-6.944811,3.339988,6.380991,16.327057,-0.021128,-0.371702,0.439395,7.644000,20.244464

3.662731,3.531590,4.908053,16.318233,0.460370,-0.194238,0.505478,7.652000,20.244464

2.005377,-1.445261,14.107324,16.309410,0.037227,-0.272845,0.570228,7.644000,20.244464

-3.570228,3.730376,12.354170,16.309410,0.313016,0.201192,0.491622,7.644000,20.244464

-0.748895,-3.085849,9.983100,16.318233,0.185913,-0.228346,0.326415,7.652000,20.244464

-1.184789,4.372242,5.068520,16.312351,-0.218044,-0.082058,0.391166,7.640000,20.244464

0.769547,2.549632,10.253737,16.303528,-0.548990,0.091942,0.460179,7.628000,20.244464

2.158659,1.704190,11.149475,16.312351,-0.079217,-0.051414,0.015986,7.632000,20.244464

-0.322582,1.653895,4.979904,16.318233,0.006318,0.176944,-0.270994,7.636000,20.244464

-2.322423,-0.906381,10.907578,16.300587,-0.237229,0.035186,-0.160678,7.636000,20.244464

3.257972,3.519615,11.439272,16.291763,0.304223,0.133244,-0.688274,7.648000,20.244464

1.337167,3.950719,5.408613,16.309410,-0.103198,0.179875,-0.699998,7.648000,20.244464

0.862953,0.216883,8.639494,16.315292,-0.656641,-0.047684,-0.440997,7.640000,20.244464

0.676141,2.463411,14.610278,16.285881,-0.182604,0.246757,-0.628053,7.648000,20.244464

-0.578849,0.944969,1.044887,16.288822,0.399083,0.173480,-0.520403,7.648000,20.244464

-6.552028,-5.159935,7.449169,16.303528,-0.393110,-0.614183,-0.229426,7.636000,20.244464

-5.622760,0.178563,12.708632,16.312351,-0.053370,0.028524,0.223561,7.636000,20.244464

-0.011229,3.754327,10.457314,16.303528,-0.021927,-0.102309,0.460179,7.632000,20.497823

0.601896,6.285863,14.169595,16.291763,0.174722,0.214249,0.555306,7.632000,20.497823

-2.712811,7.854601,8.308981,16.279999,0.691126,0.344282,0.462311,7.648000,20.497823

0.872533,-4.525255,8.179650,16.297646,-0.033385,-0.908358,0.145487,7.632000,20.497823

0.245038,-0.365107,7.750942,16.303528,-0.512751,-0.143877,0.414614,7.628000,20.497823

-4.367770,6.592425,12.224838,16.303528,-0.018463,0.597688,0.636844,7.628000,20.497823

-5.191657,5.342225,8.658654,16.274117,-0.168215,0.251820,0.328547,7.644000,20.497823

-1.323700,1.697005,12.617621,16.291763,0.033230,0.195863,0.181193,7.640000,20.497823

1.825751,5.560172,10.842913,16.294704,0.489148,0.238230,0.067947,7.644000,20.497823

-1.237479,4.446488,8.426337,16.288822,0.286370,0.467122,-0.278455,7.652000,20.497823

0.012721,3.902818,8.399992,16.282940,-0.162886,0.007207,-0.603006,7.656000,20.497823

-0.614774,6.089471,11.561419,16.271175,-0.057633,0.233967,-0.803919,7.652000,20.497823

2.017352,9.931083,6.934240,16.279999,0.629040,0.340552,-0.826834,7.648000,20.497823

7.911496,-1.325510,8.917316,16.291763,0.395353,-0.494542,-0.896381,7.652000,20.497823

-0.518973,5.955350,4.591911,16.297646,0.084391,0.132978,-0.856412,7.644000,20.497823

-0.566874,3.543565,9.595107,16.279999,0.197371,-0.327470,-1.021352,7.640000,20.497823

1.856886,4.903936,3.504572,16.279999,0.191509,-0.317344,-0.933952,7.640000,20.497823

0.592316,6.419984,5.822951,16.288822,0.418269,-0.146808,-0.815643,7.644000,20.497823

3.358563,-4.273778,15.302439,16.279999,-0.581499,-0.949926,-0.655765,7.632000,20.497823

-0.849486,7.100169,14.377961,16.285881,0.387892,0.304579,-0.191588,7.636000,20.497823

-3.124755,5.124278,6.004972,16.285881,0.328737,0.021063,-0.150553,7.640000,20.497823

0.051041,4.954232,10.011841,16.291763,0.127292,-0.349053,0.079671,7.640000,20.497823

3.986058,1.498219,10.888417,16.282940,0.371638,-0.160398,0.167604,7.640000,20.497823

-2.058971,5.488321,7.997629,16.294704,-0.012068,-0.341326,0.101521,7.644000,20.497823

-1.860184,4.951837,5.961862,16.285881,-0.021128,-0.036759,0.559836,7.644000,20.497823

-2.602640,1.615574,5.626559,16.297646,0.092652,-0.030630,0.415414,7.644000,20.497823

2.216139,-2.472724,6.965375,16.315292,-0.037649,-0.323206,0.415947,7.644000,20.497823

2.213744,1.601204,11.975757,16.288822,-0.250286,-0.223016,0.188121,7.644000,20.497823

-0.279472,5.797279,3.921305,16.294704,0.777460,0.432748,0.290443,7.660000,20.497823

-3.282826,11.128592,7.552155,16.279999,-0.149030,0.109795,0.103386,7.656000,20.497823

3.140616,-0.801000,11.721885,16.279999,0.408410,0.224907,0.137493,7.652000,20.497823

1.708395,2.700518,4.249423,16.297646,0.309019,0.391713,-0.245946,7.656000,20.497823

-3.491193,-8.345312,9.583132,16.288822,-0.481309,-0.414603,-0.337076,7.644000,20.497823

1.641334,-2.003300,10.323193,16.277058,0.178719,-0.215555,-0.904908,7.644000,20.497823

-1.797914,-0.578263,5.983417,16.297646,-0.322497,0.092742,-0.927024,7.640000,20.497823

-3.673214,5.579332,3.954836,16.300587,-0.211915,0.205455,-0.923027,7.640000,20.497823

0.041461,4.264466,8.052714,16.297646,0.010848,-0.092183,-0.812978,7.636000,20.497823

-0.736920,1.807176,14.868940,16.315292,-0.354473,0.111661,-0.362923,7.648000,20.497823

-5.397628,8.510836,11.053674,16.285881,-0.000877,0.495633,-0.367986,7.640000,10.341367

3.959713,3.256163,8.443103,16.294704,0.556030,-0.352251,-0.221965,7.640000,10.341367

-0.140560,4.542289,8.479028,16.268234,0.303423,0.226506,0.123637,7.644000,10.341367

-1.888925,0.470755,8.184441,16.294704,0.018308,-0.269647,0.063150,7.652000,10.341367

-2.379904,-0.796210,6.019342,16.282940,-0.037116,-0.271512,-0.035707,7.648000,10.341367

-5.728141,-3.356486,9.039463,16.291763,-0.393376,-0.556894,0.013855,7.648000,10.341367

-1.896110,-1.964980,11.080019,16.303528,-0.194329,-0.279240,-0.052494,7.644000,10.341367

-1.852999,6.561290,10.361513,16.291763,0.459304,0.166285,-0.127903,7.648000,10.341367

3.078346,2.633458,7.159372,16.279999,0.232278,-0.227813,-0.039171,7.644000,10.341367

-1.338070,1.584439,9.772339,16.291763,0.178719,0.050641,-0.071413,7.636000,10.341367

-3.179840,-0.326786,9.480146,16.285881,0.011380,-0.323739,-0.189989,7.636000,10.341367

0.783917,1.287457,8.428732,16.309410,-0.134108,-0.369038,-0.051962,7.632000,10.341367

-1.785939,2.810689,10.143566,16.294704,-0.059765,-0.107105,0.039435,7.632000,10.341367

-0.123795,1.435948,13.551680,16.279999,-0.070690,-0.258989,-0.049563,7.620000,10.341367

0.515675,3.601046,9.329260,16.256470,0.036694,-0.150006,-0.155615,7.632000,10.341367

0.338444,2.808294,5.638535,16.277058,-0.296650,-0.277908,0.177463,7.616000,10.341367

0.213903,2.736444,20.250549,16.282940,0.026835,-0.120162,0.145487,7.624000,10.341367

0.594711,7.392362,7.274333,16.268234,0.098780,0.064497,0.338939,7.632000,10.341367

-2.753527,5.574542,7.207272,16.271175,-0.104531,0.203324,0.646437,7.632000,20.207726

1.301241,5.054823,10.850098,16.274117,0.097981,-0.136150,0.564899,7.632000,20.207726

1.622174,2.628668,8.179650,16.277058,0.316214,-0.076195,0.349597,7.632000,20.207726

1.418597,0.389324,9.101733,16.279999,0.004186,-0.150539,0.382372,7.640000,20.207726

-0.533344,0.245623,9.654983,16.268234,0.174189,-0.118563,0.305898,7.636000,20.207726

2.659218,1.469478,11.918276,16.277058,0.169393,-0.011978,0.278185,7.640000,20.207726

-1.201554,4.216566,7.133027,16.282940,0.173923,0.255017,0.155879,7.648000,20.207726

-2.842142,1.237161,11.515913,16.256470,0.199503,-0.033828,0.261132,7.644000,20.207726

0.613871,7.351646,9.848979,16.277058,0.718838,0.053838,0.135628,7.656000,20.207726

2.846029,7.289376,1.044887,16.271175,0.045221,0.217446,0.444725,7.640000,20.207726

-1.910480,0.688702,15.501225,16.274117,-0.022993,0.203857,0.456182,7.624000,20.207726

1.291661,6.211617,12.742163,16.279999,0.046287,0.183073,0.114311,7.636000,20.207726

1.837726,5.363780,5.228986,16.274117,0.335132,0.142570,0.319487,7.628000,20.207726

-0.825536,-0.743520,11.839240,16.247646,0.222419,0.088478,0.268593,7.632000,20.207726

0.534835,2.154454,10.227392,16.265293,0.334067,0.193997,-0.106053,7.636000,20.207726

-0.689020,-0.209430,7.422824,16.268234,-0.065894,0.124984,-0.156148,7.640000,20.207726

-2.121242,-1.471606,5.693620,16.268234,-0.325428,0.122053,-0.337609,7.628000,20.207726

0.776732,0.128267,12.471525,16.253529,-0.212981,0.083948,-0.468442,7.624000,20.207726

-0.799191,2.611902,9.089758,16.268234,-0.083214,0.205988,-0.707992,7.628000,20.207726

0.879718,3.979459,7.813212,16.274117,-0.214846,-0.003185,-0.740234,7.624000,20.207726

-0.595614,2.614298,11.999706,16.277058,-0.140770,0.105532,-0.850017,7.628000,19.886147

-1.112938,3.052586,9.580737,16.271175,-0.011002,-0.051681,-0.761818,7.636000,19.886147

0.067806,4.911121,13.369658,16.253529,0.098514,0.057036,-0.670421,7.648000,19.886147

-0.257916,1.064720,9.829819,16.265293,0.111037,-0.072199,-0.505481,7.644000,19.886147

0.206717,-0.602214,4.517665,16.271175,0.213359,-0.300823,-0.113248,7.636000,19.886147

-1.582362,-4.510885,12.229629,16.250587,-0.364065,-0.519323,-0.002932,7.628000,19.886147

-5.064721,-1.945820,7.820397,16.241764,-0.325428,-0.201966,0.123637,7.628000,19.886147

-5.287457,2.705308,6.953400,16.271175,-0.440540,-0.258456,0.241414,7.620000,19.886147

-2.820587,0.906649,15.762282,16.262352,-0.244956,0.420224,0.551576,7.620000,19.886147

-1.685348,2.726864,9.774734,16.265293,-0.411229,-0.173987,0.402091,7.624000,19.886147

0.010326,5.579332,10.263317,16.265293,0.225350,-0.067402,0.695732,7.632000,19.886147

-1.733248,2.908885,9.585527,16.274117,0.307953,-0.227813,0.891582,7.632000,19.886147

0.288148,3.845338,6.186994,16.262352,0.036694,-0.158799,0.958997,7.632000,19.886147

-4.020492,0.815638,12.339800,16.265293,-0.299581,-0.027166,0.715983,7.632000,19.886147

3.020865,3.086117,9.762758,16.253529,0.054814,-0.048750,0.612596,7.632000,19.886147

-2.801427,0.461175,6.656418,16.262352,-0.113058,0.094074,0.288311,7.632000,19.886147

-1.757199,-0.815370,7.247987,16.241764,-0.377921,-0.109237,0.180127,7.628000,19.886147

-0.109425,-0.573473,14.162410,16.253529,-0.322497,-0.030364,-0.032243,7.624000,19.886147

-0.255521,2.338870,12.464340,16.268234,-0.430947,0.124717,-0.079674,7.636000,19.886147

-2.363138,6.010436,11.384187,16.279999,-0.142368,0.207054,0.059420,7.644000,19.837623

1.389857,6.824742,14.732424,16.262352,0.070269,0.149498,0.057022,7.640000,19.837623

0.635426,-0.211825,4.613466,16.250587,-0.479710,0.116457,0.021582,7.636000,19.837623

-3.340307,2.104158,16.844831,16.279999,-0.155159,-0.030097,0.012522,7.628000,19.837623

0.065411,4.688385,11.202166,16.262352,-0.124249,0.008007,0.085000,7.624000,19.837623

-2.236202,3.102882,5.631349,16.262352,-0.237495,-0.340260,0.136694,7.628000,19.837623

-0.976422,-1.603332,13.247512,16.274117,-0.250286,-0.143610,0.255536,7.624000,19.837623

0.462985,6.384058,8.562854,16.253529,0.105175,-0.027166,0.378642,7.628000,19.837623

0.410294,7.780354,5.605004,16.268234,0.343393,0.336288,0.640841,7.636000,19.837623

5.605092,-0.947096,9.274175,16.268234,-0.003009,-0.220352,0.621922,7.640000,19.837623

-3.244506,-1.272819,7.489884,16.250587,-0.182604,-0.419666,0.468173,7.636000,19.837623

-6.702914,4.721915,10.129196,16.265293,-0.296650,0.162022,0.608066,7.632000,19.837623

1.883231,-1.318324,12.366145,16.262352,0.017243,0.240095,0.692268,7.636000,19.837623

0.398319,-2.192507,9.760364,16.256470,-0.103998,-0.011445,0.621389,7.628000,19.837623

-2.090106,3.874078,13.324153,16.259411,-0.333955,0.012537,0.483895,7.628000,19.837623

-1.699718,3.122042,10.591435,16.250587,0.073999,0.441541,0.576091,7.628000,19.837623

-0.384852,4.264466,6.663603,16.259411,0.044155,0.080484,0.288578,7.628000,19.837623

3.217257,2.611902,11.769785,16.256470,-0.219376,0.152429,0.323218,7.620000,19.837623

1.449733,-0.264516,11.515913,16.241764,0.019907,0.320834,0.219297,7.624000,19.837623

1.806591,3.179522,5.044569,16.268234,0.174455,0.241161,0.273389,7.624000,19.837623

-2.097291,2.123319,10.418994,16.256470,-0.024592,0.308043,-0.046632,7.624000,19.669665

-0.296237,0.334239,8.565248,16.271175,0.155537,0.284062,-0.377046,7.640000,19.669665

0.786312,-3.938476,7.633585,16.265293,-0.032053,0.147367,-0.442063,7.636000,19.669665

-7.220238,-2.338603,8.965217,16.253529,-0.712065,0.141238,-0.602739,7.628000,19.669665

2.062858,0.530631,8.553273,16.253529,0.179518,-0.115898,-0.578491,7.624000,19.669665

-0.971632,6.367293,13.673825,16.265293,0.435855,0.374126,-0.603539,7.620000,19.669665

1.543139,-1.347065,6.733058,16.262352,0.561359,-0.426061,-0.806583,7.628000,19.669665

3.461549,-2.252382,13.333733,16.256470,-0.600417,-0.418333,-0.565435,7.616000,19.669665

-2.648146,3.263348,14.526452,16.268234,-0.500760,0.233167,-0.403692,7.612000,19.669665

-3.886371,6.316998,12.493081,16.282940,0.147276,0.554255,-0.265664,7.624000,19.669665

-2.660121,-0.884826,6.234894,16.250587,0.000722,0.184138,-0.220366,7.620000,19.669665

0.053436,0.480335,2.218446,16.256470,-0.174344,-0.526784,-0.017055,7.612000,19.669665

-1.124913,1.697005,14.773139,16.271175,-0.181005,-0.086055,0.295772,7.620000,19.669665

-5.390443,7.176810,10.818962,16.262352,-0.190065,0.093541,0.508409,7.620000,19.669665

-0.289052,1.318592,13.077465,16.250587,0.180584,0.237164,0.620856,7.628000,19.669665

0.573155,1.234766,9.288545,16.279999,0.173923,-0.166526,0.588348,7.624000,19.669665

2.276014,-2.067966,9.614267,16.262352,-0.343814,-0.397549,0.485493,7.620000,19.669665

-6.140084,0.858748,19.278172,16.271175,0.042557,0.107930,0.730639,7.616000,19.669665

-2.470914,6.994789,3.933280,16.244705,0.507267,0.081550,0.446323,7.632000,19.669665

5.815853,0.985684,6.534272,16.259411,-0.090408,-0.389555,0.638176,7.616000,19.669665

1.044974,4.326737,9.947175,16.274117,0.006318,0.230236,0.562501,7.612000,19.159330

-0.083080,-1.639257,12.243999,16.277058,-0.521012,0.148166,0.408486,7.612000,19.159330

-2.755922,1.886212,11.103970,16.277058,-0.250019,0.273403,0.470838,7.600000,19.159330

1.442548,6.230777,9.731624,16.274117,0.442250,0.689884,0.125236,7.620000,19.159330

2.843634,2.401141,6.627677,16.265293,-0.285725,0.150298,0.054357,7.620000,19.159330

3.315453,4.753050,9.575947,16.265293,0.259191,-0.041289,-0.471107,7.616000,19.159330

-0.715365,6.120606,9.441826,16.268234,-0.067492,0.536135,-0.130035,7.596000,19.159330

1.389857,-0.963862,3.533312,16.277058,0.586140,0.016001,-0.629119,7.612000,19.159330

4.711749,1.967642,12.366145,16.265293,-0.061364,-0.391954,-0.793260,7.612000,19.159330

0.762362,3.167547,9.008327,16.274117,-0.307842,0.023195,-0.251542,7.604000,19.159330

-0.863856,2.286180,9.935200,16.268234,0.277843,0.119654,-0.462047,7.608000,19.159330

-1.642238,-0.156740,8.426337,16.268234,-0.239627,-0.191840,0.097524,7.612000,19.159330

-3.349886,1.661080,14.703684,16.271175,-0.263342,-0.013577,0.484161,7.600000,19.159330

-4.231254,0.190538,11.274015,16.268234,0.112903,0.145501,0.882789,7.608000,19.159330

-2.894833,1.220396,5.961862,16.256470,0.307687,-0.203565,0.676014,7.600000,19.159330

1.600619,0.401300,10.112432,16.244705,-0.081082,-0.077528,0.885720,7.592000,19.159330

-0.930917,0.137847,6.931845,16.265293,-0.112525,-0.036493,0.969922,7.604000,19.159330

-1.694928,-3.272660,10.704001,16.259411,-0.347012,-0.164661,0.848682,7.588000,19.159330

-0.356112,2.868170,7.401269,16.256470,0.227215,0.143370,1.006161,7.608000,19.159330

1.006654,-0.748310,11.355447,16.262352,-0.333156,-0.180649,0.756486,7.592000,19.159330

0.072596,3.605836,11.784155,16.274117,0.398284,0.214515,0.838556,7.588000,19.159330

-1.328490,-2.623610,8.390412,16.256470,-0.006473,0.162022,0.518535,7.600000,17.783958

0.106127,-2.467934,5.717570,16.265293,-0.412561,-0.118030,0.287245,7.592000,17.783958

-2.305658,-2.453564,16.629278,16.262352,-0.399505,0.262478,0.424207,7.576000,17.783958

-0.595614,3.943534,11.238091,16.265293,-0.070157,0.100736,0.482562,7.576000,17.783958

-5.661080,5.117093,11.745834,16.259411,-0.171146,0.551857,0.378908,7.576000,17.783958

-0.909362,0.688702,10.270503,16.253529,-0.001943,0.232102,0.318155,7.580000,17.783958

3.473524,4.077655,11.281200,16.259411,0.222685,0.407167,0.445257,7.580000,17.783958

-0.923732,0.068392,11.829660,16.247646,-0.265474,0.470586,0.322951,7.576000,17.783958

0.429454,-0.209430,11.300361,16.247646,-0.128246,0.288059,0.309095,7.576000,17.783958

-0.186066,3.943534,4.316483,16.262352,-0.105064,0.190001,0.059153,7.564000,17.783958

-1.338070,1.555699,11.010564,16.268234,0.120097,0.261412,-0.187857,7.576000,17.783958

2.750228,-0.101654,14.272580,16.247646,-0.279863,0.296053,-0.264865,7.572000,17.783958

-1.955985,5.632022,7.394083,16.265293,0.046554,0.413829,-0.433269,7.568000,17.783958

1.277291,3.081326,10.407019,16.265293,0.046021,0.434613,-0.838825,7.576000,17.783958

1.286871,3.074141,10.021420,16.279999,0.032165,0.533204,-1.162311,7.568000,17.783958

0.750387,-2.812817,10.984219,16.274117,-0.069091,0.297118,-1.135131,7.556000,17.783958

-0.897387,-2.036830,10.929133,16.282940,-0.345413,0.133777,-1.346436,7.548000,17.783958

-1.915270,9.279637,11.027328,16.265293,0.266385,0.330959,-1.245180,7.564000,17.783958

0.309703,0.025282,6.414521,16.277058,0.140615,0.279798,-1.223331,7.572000,17.783958

0.285753,-1.368620,9.796288,16.259411,-0.328359,-0.140679,-1.139928,7.564000,17.783958

-1.065038,-2.324233,11.932646,16.262352,-0.336353,0.058901,-0.933686,7.560000,17.783958

-1.747618,1.804781,7.968888,16.253529,0.002321,-0.002385,-0.834029,7.556000,17.783958

-2.291288,5.998460,10.435759,16.256470,0.007117,0.037318,-0.828433,7.544000,17.783958

1.049764,-0.048964,9.281360,16.271175,0.210428,-0.001320,-0.882259,7.548000,17.783958

-0.200436,5.026083,12.739768,16.268234,0.060143,-0.148407,-0.844154,7.560000,17.783958

1.023419,4.614139,8.055109,16.282940,0.541907,0.277667,-0.715187,7.556000,15.680895

1.595829,-3.002023,7.219247,16.247646,-0.029388,-0.166793,-0.764216,7.552000,15.680895

-2.916388,1.404813,10.878838,16.259411,-0.100800,-0.376499,-0.492957,7.544000,15.680895

1.037789,2.034703,13.374448,16.277058,0.016443,-0.193439,-0.002666,7.564000,15.680895

-3.416947,1.486243,7.925778,16.279999,0.204299,-0.008780,0.432734,7.560000,15.680895

-1.247059,4.101605,8.076665,16.271175,0.233610,-0.189975,0.474835,7.560000,15.680895

-3.242111,-0.283676,10.617781,16.274117,0.124627,-0.066070,0.162008,7.552000,15.680895

0.237853,-2.070361,8.826305,16.262352,0.236808,-0.112967,-0.086069,7.548000,15.680895

1.212626,-1.306349,9.748388,16.265293,-0.254016,-0.301623,-0.286182,7.540000,15.680895

-0.768055,10.091549,8.251501,16.271175,0.056679,-0.315212,-0.389836,7.532000,15.680895

-2.130822,-0.851296,11.614109,16.274117,0.444915,0.329360,-0.419680,7.560000,15.680895

1.028209,-4.201928,2.829176,16.271175,-0.554319,-0.463632,-0.689073,7.528000,15.680895

-2.624196,0.683912,12.095508,16.274117,-0.129312,-0.273378,-0.928890,7.528000,15.680895

2.072438,-1.814093,11.882351,16.271175,0.085723,-0.161197,-0.909438,7.520000,15.680895

-2.585875,-0.532758,13.611555,16.247646,-0.285725,-0.268581,-0.885190,7.524000,15.680895

-3.601364,3.054981,8.368856,16.268234,0.467031,0.288325,-0.628586,7.512000,15.680895

0.606686,-0.439352,10.629756,16.285881,-0.104264,-0.462566,-0.459383,7.500000,15.680895

0.870138,1.215606,9.837004,16.271175,0.397751,-0.071399,0.034372,7.496000,15.680895

-0.636329,0.712652,6.924660,16.279999,0.354851,-0.132419,0.234752,7.492000,15.680895

-1.417106,1.756881,10.663286,16.268234,0.141148,-0.111901,0.198247,7.476000,15.680895

-0.808771,1.605994,9.089758,16.277058,0.158734,-0.068202,-0.079674,7.464000,15.680895

-0.439938,-2.467934,9.422666,16.271175,0.119831,-0.174254,-0.227294,7.472000,15.680895

0.412689,0.097132,10.850098,16.271175,0.004186,-0.279240,-0.450856,7.460000,15.680895

-0.044760,5.208104,8.167675,16.277058,0.143279,-0.174520,-0.347468,7.440000,15.680895

0.704881,-2.051200,11.125525,16.274117,-0.085345,-0.331200,-0.337076,7.432000,15.680895

-1.105753,3.016661,11.563813,16.265293,0.019374,-0.172655,-0.290179,7.444000,15.680895

-2.092501,-0.892011,14.442627,16.253529,-0.364332,-0.060208,-0.246746,7.472000,15.680895

-0.756080,2.475386,7.595265,16.262352,0.220554,-0.068468,-0.245680,7.452000,15.680895

-2.674491,-3.040344,10.136381,16.259411,-0.324895,-0.351185,-0.230758,7.432000,15.680895

0.446219,4.506363,13.491804,16.274117,0.413206,-0.160398,0.121506,7.424000,15.680895

0.568365,-1.550641,7.295888,16.279999,-0.350742,-0.240070,0.449521,7.380000,2563.381787

-4.300709,-0.681249,10.292058,16.274117,0.357782,0.009605,0.765013,7.388000,2563.381787

-1.304540,0.554581,10.804592,16.268234,-0.117854,-0.306153,0.657362,7.336000,2563.381787

0.918038,-2.827187,12.986455,16.285881,0.125426,-0.225414,0.825233,7.312000,2563.381787

-0.389642,-0.175900,9.551997,16.274117,0.054014,-0.325871,0.839355,7.264000,2563.381787

1.114430,-1.236894,7.827582,16.268234,0.021772,-0.203565,0.802317,7.148000,2563.381787

2.630477,0.432435,10.304033,16.285881,-0.108794,-0.204364,0.881457,6.972000,2563.381787

0.053436,-0.870456,10.648915,16.288822,0.034829,-0.094848,0.852146,6.824000,2563.381787

0.647401,0.633617,7.990444,16.277058,-0.028322,-0.093249,0.529726,6.608000,2563.381787

0.786312,1.172496,9.192744,16.291763,-0.098935,-0.040490,0.431401,6.348000,2563.381787

-1.793124,-1.040502,10.217813,16.297646,0.120897,-0.020771,0.420743,6.172000,2563.381787

-0.847091,2.643038,9.015512,16.268234,0.185380,-0.144676,0.302434,6.148000,2563.381787

-0.351322,1.730535,10.397439,16.277058,-0.194861,-0.136949,0.239548,6.012000,2563.381787

-0.667465,0.001331,9.741203,16.282940,0.107840,-0.141745,0.340804,5.832000,2563.381787

2.529886,1.376073,10.407019,16.274117,-0.074420,-0.209160,0.302700,5.656000,2563.381787

2.738253,-0.721965,9.767549,16.277058,0.089987,0.015201,0.447389,5.480000,2563.381787

0.834213,3.100487,10.977034,16.277058,0.007916,0.012004,0.520666,5.296000,2563.381787

0.671351,-0.757890,8.831096,16.268234,0.012446,0.031455,0.435931,5.124000,2563.381787

-0.154930,-0.645324,8.816726,16.274117,0.155803,-0.056211,0.426072,4.964000,2563.381787

0.120497,1.653895,10.677656,16.262352,-0.024059,-0.038624,0.591812,4.760000,2563.381787

0.194742,0.906649,9.396320,16.294704,0.063874,0.045578,0.793524,4.596000,2563.381787

-0.720155,-0.250146,9.628637,16.297646,0.104909,0.019997,0.945408,4.432000,2563.381787

0.479750,2.094578,9.932805,16.294704,0.134486,-0.081258,1.053325,4.260000,2563.381787

1.064134,0.633617,10.042975,16.274117,0.050284,-0.047684,1.187089,4.100000,2563.381787

1.176700,0.626431,8.984377,16.291763,0.130223,-0.027433,1.314192,3.944000,2563.381787

1.346747,2.312525,9.817844,16.288822,0.127825,0.056236,1.461012,3.808000,2563.381787

2.937040,1.447923,9.061018,16.274117,0.087322,0.079952,1.540685,3.716000,2563.381787

2.604132,3.833362,8.790380,16.282940,0.173656,0.275002,1.597708,4.720000,2563.381787

1.811381,1.294642,9.587922,16.268234,0.165396,0.272604,1.593444,4.872000,2563.381787

2.252064,1.879027,8.553273,16.282940,0.231478,0.376791,1.389334,5.344000,2563.381787

1.892811,1.122200,9.518467,16.291763,0.317546,0.368264,1.229457,5.724000,2563.381787

0.654586,2.724468,9.791499,16.291763,0.213359,0.475115,0.897711,5.820000,2563.381787

1.686840,3.749537,8.431128,16.285881,0.285837,0.340285,0.674682,5.736000,2563.381787

-1.388366,0.604876,12.665523,16.285881,0.228547,0.430350,0.476434,5.552000,2563.381787

0.161212,0.109107,8.352092,16.312351,-0.012335,0.105532,0.267527,5.368000,2563.381787

-1.057853,-0.542338,10.965058,16.277058,0.059877,0.227039,0.004795,5.192000,2563.381787

-1.625473,-0.245356,10.548325,16.288822,-0.112791,-0.021304,-0.309897,5.016000,2563.381787

-0.916547,-1.782958,10.469289,16.294704,-0.210316,-0.113767,-0.461514,4.848000,2563.381787

-0.609984,-1.651232,9.851375,16.309410,-0.224439,-0.206496,-0.497220,4.676000,2563.381787

-0.006439,-0.779445,9.760364,16.279999,-0.043777,-0.264052,-0.424743,4.476000,2563.381787

1.885626,1.234766,9.051437,16.277058,-0.002209,-0.203565,-0.410087,4.312000,2563.381787

3.904628,1.330567,9.755573,16.285881,-0.027790,-0.197169,-0.366121,4.156000,2563.381787

3.808827,2.702913,8.708950,16.274117,-0.064295,-0.116964,-0.333612,3.992000,2563.381787

1.957477,1.946087,9.511281,16.285881,-0.044044,-0.040490,-0.441530,3.836000,2563.381787

2.014957,1.182076,9.463381,16.279999,-0.049906,-0.051148,-0.729309,3.684000,2563.381787

1.837726,1.776041,9.468171,16.291763,0.027368,0.010138,-0.978984,3.532000,2563.381787

1.437757,3.011871,9.892090,16.262352,-0.007005,0.033854,-1.038139,3.388000,2563.381787

2.287989,1.845496,9.312495,16.274117,0.002321,0.031722,-0.965128,3.280000,2563.381787

1.368302,1.823941,9.108918,16.285881,-0.016598,0.072491,-0.842556,3.212000,2563.381787

0.395924,1.637130,9.197534,16.279999,-0.009670,0.155893,-0.480167,3.124000,2563.381787

0.530045,1.297037,9.178373,16.271175,0.075864,0.131645,-0.225962,3.064000,2563.381787

1.931132,1.919742,9.077783,16.285881,0.060676,0.224374,0.044231,3.004000,2563.381787

-0.456703,0.904254,9.384345,16.271175,0.003120,0.161756,0.209438,2.944000,2563.381787

0.791102,1.541329,8.886181,16.274117,0.008183,0.187336,0.240881,2.884000,2563.381787

-0.286657,1.517379,9.463381,16.277058,-0.027523,0.164687,0.193184,2.832000,2563.381787

-2.164352,1.028795,10.325588,16.274117,0.031898,0.209985,0.120706,2.772000,2563.381787

-0.370482,1.423973,10.373488,16.282940,0.005785,0.038117,-0.053027,2.716000,2563.381787

-1.196764,1.603599,9.920830,16.282940,-0.039780,0.074089,-0.057024,2.652000,2563.381787

0.352814,1.004844,9.932805,16.282940,-0.004074,-0.027966,-0.069015,2.604000,2563.381787

0.316888,1.215606,9.848979,16.297646,-0.021927,0.019997,0.008792,2.540000,2563.381787

0.762362,1.400023,9.494516,16.274117,-0.005940,0.019731,0.026911,2.484000,2563.381787

0.553995,1.526959,9.638218,16.279999,0.007117,0.046111,0.038902,2.432000,2563.381787

0.683326,1.598809,9.530441,16.277058,0.003120,0.045311,0.010391,2.380000,2563.381787

0.592316,1.629945,9.535232,16.271175,0.009249,0.053305,-0.026914,2.328000,2563.381787

0.577946,1.689820,9.456196,16.277058,0.010315,0.060233,-0.056758,2.280000,2563.381787

0.491725,1.790411,9.463381,16.279999,0.012446,0.070892,-0.083671,2.232000,2563.381787

0.206717,1.929322,9.449011,16.282940,0.013779,0.075155,-0.105787,2.184000,2563.381787

0.139657,1.996382,9.403505,16.259411,0.008716,0.077287,-0.110583,2.136000,2563.381787

-0.396827,1.962852,9.580737,16.259411,0.004452,0.071691,-0.089000,2.088000,2563.381787

-0.427963,1.670660,9.501701,16.268234,-0.002476,0.046644,-0.087934,2.036000,2563.381787

-0.746500,1.546119,9.595107,16.265293,-0.005407,0.025860,-0.130035,1.992000,2563.381787

-0.746500,1.790411,9.525652,16.291763,-0.006739,-0.005316,-0.157214,1.936000,2563.381787

-0.703390,2.032308,9.506492,16.291763,-0.010203,-0.028499,-0.142559,1.896000,2563.381787

-0.645909,2.015543,9.480146,16.288822,-0.016865,-0.051947,-0.107386,1.848000,2563.381787

-0.427963,1.613179,9.547207,16.291763,-0.020329,-0.085788,-0.082338,1.776000,2563.381787

-0.171696,1.582044,9.561577,16.279999,-0.020062,-0.093782,-0.072213,1.736000,2563.381787

0.055831,1.711375,9.475356,16.300587,-0.016865,-0.099111,-0.036240,1.696000,2563.381787

0.218693,1.764066,9.437036,16.262352,-0.016065,-0.096713,0.018918,1.656000,2563.381787

0.328863,1.732930,9.499307,16.288822,-0.016598,-0.090584,0.063950,1.620000,2563.381787

0.446219,1.603599,9.516071,16.268234,-0.014999,-0.083124,0.088464,1.576000,2563.381787

0.551600,1.555699,9.537626,16.274117,-0.011802,-0.072731,0.075141,1.540000,2563.381787

0.731227,1.625154,9.494516,16.297646,-0.008338,-0.063938,0.053025,1.500000,2563.381787

0.692906,1.692215,9.496911,16.282940,-0.007272,-0.049016,0.041300,1.464000,2563.381787

0.716857,1.716165,9.501701,16.288822,-0.007805,-0.038891,0.032507,1.432000,2563.381787

0.467775,1.692215,9.537626,16.294704,-0.007805,-0.030364,0.013588,1.396000,2563.381787

0.635426,1.632339,9.504096,16.294704,-0.007005,-0.022370,-0.004798,1.360000,2563.381787

0.561180,1.608389,9.501701,16.297646,-0.008071,-0.014643,-0.018121,1.324000,2563.381787

0.577946,1.653895,9.511281,16.297646,-0.004074,-0.007182,-0.012525,1.292000,2563.381787

0.606686,1.665870,9.482541,16.279999,-0.002742,0.001612,-0.000001,1.264000,2563.381787

0.549205,1.639525,9.535232,16.285881,-0.001410,0.008806,0.002930,1.232000,2563.381787

0.386344,1.658685,9.484936,16.300587,-0.000077,0.014935,-0.014657,1.208000,2563.381787

0.386344,1.771251,9.551997,16.303528,0.003653,0.013869,-0.032243,1.184000,2563.381787

0.300123,1.778436,9.513677,16.315292,-0.004341,0.019465,-0.041303,1.164000,2563.381787

0.146842,1.759276,9.559182,16.297646,-0.003541,0.007207,-0.057291,1.144000,2563.381787

0.271383,1.685030,9.506492,16.297646,-0.005940,0.003743,-0.051162,1.132000,2563.381787

0.338444,1.677845,9.516071,16.318233,-0.007005,0.003210,-0.025848,1.116000,2563.381787

0.422269,1.658685,9.451406,16.312351,-0.001143,0.010405,0.001864,1.100000,2563.381787

0.223483,1.548514,9.566367,16.294704,-0.003275,0.012803,0.027711,1.084000,2563.381787

0.271383,1.646710,9.568762,16.294704,0.002321,0.009605,0.030642,1.076000,2563.381787

0.415084,1.759276,9.470566,16.306469,0.003120,0.010138,0.033040,1.064000,2563.381787

0.458195,1.716165,9.513677,16.291763,-0.001410,0.017866,0.024513,1.056000,2563.381787

0.496515,1.632339,9.487331,16.309410,-0.001143,0.019731,-0.010660,1.044000,2563.381787

0.417479,1.617970,9.523256,16.300587,0.000722,0.026393,-0.043701,1.036000,2563.381787

0.369579,1.689820,9.518467,16.294704,-0.001143,0.027725,-0.061021,1.028000,2563.381787

0.218693,1.673055,9.460986,16.300587,0.001788,0.035719,-0.037573,1.024000,2563.381787

0.173187,1.701795,9.583132,16.294704,0.000189,0.029057,-0.016788,1.016000,2563.381787

0.082176,1.778436,9.528047,16.303528,0.000722,0.027725,-0.006663,1.008000,2563.381787

-0.006439,1.802386,9.475356,16.285881,-0.001676,0.022396,-0.009328,1.004000,2563.381787

0.036671,1.673055,9.532837,16.303528,-0.003009,0.011471,-0.032243,0.996000,2563.381787

0.003141,1.706585,9.535232,16.306469,-0.007005,-0.006116,-0.069282,0.988000,2563.381787

0.072596,1.670660,9.492122,16.309410,-0.007005,-0.006915,-0.052761,0.984000,2563.381787

0.098942,1.565279,9.513677,16.300587,-0.007538,-0.009580,-0.029312,0.976000,2563.381787

0.300123,1.577254,9.645403,16.312351,0.000722,-0.008248,0.005328,0.976000,2563.381787

0.357604,1.759276,9.458591,16.306469,0.001521,-0.001053,0.034905,0.972000,2563.381787

0.563575,1.850286,9.477751,16.306469,0.002054,0.008806,0.056755,0.972000,2563.381787

0.441429,1.697005,9.532837,16.315292,-0.003808,0.017866,0.038902,0.964000,2563.381787

0.403109,1.651500,9.575947,16.306469,0.000189,0.020264,-0.016256,0.964000,2563.381787

0.316888,1.668265,9.458591,16.306469,-0.002209,0.029324,-0.056758,0.960000,2563.381787

0.098942,1.728140,9.556787,16.321175,-0.002209,0.023994,-0.065551,0.956000,2563.381787

-0.166906,1.792806,9.508886,16.282940,0.000722,0.023195,-0.043701,0.952000,2563.381787

-0.095055,1.723350,9.489726,16.309410,-0.003541,0.013602,0.015720,0.948000,2563.381787

-0.027994,1.550909,9.595107,16.303528,-0.002742,0.000279,0.022115,0.944000,2563.381787

-0.004044,1.632339,9.549602,16.300587,-0.001143,-0.005849,0.009058,0.940000,2563.381787

0.082176,1.742511,9.523256,16.306469,-0.001943,-0.004517,0.025313,0.940000,2563.381787

0.115707,1.773646,9.475356,16.315292,-0.001410,-0.005050,0.039968,0.940000,2563.381787

0.079781,1.673055,9.563972,16.312351,-0.002742,-0.004784,0.032774,0.936000,2563.381787

0.259408,1.761671,9.528047,16.318233,-0.001943,-0.009047,0.016253,0.936000,2563.381787

0.304913,1.776041,9.561577,16.327057,-0.003009,-0.005050,0.007726,0.932000,2563.381787

0.489330,1.728140,9.463381,16.315292,-0.003541,0.002144,0.007726,0.932000,2563.381787

0.161212,1.682635,9.540022,16.329998,-0.004607,0.002944,-0.007729,0.932000,2563.381787

0.132472,1.617970,9.530441,16.306469,-0.003009,0.011737,-0.026381,0.932000,2563.381787

0.154027,1.617970,9.585527,16.318233,-0.005673,-0.000787,-0.030911,0.924000,2563.381787

0.108522,1.596414,9.484936,16.312351,-0.000344,0.014668,-0.014390,0.928000,2563.381787

0.120497,1.661080,9.523256,16.312351,-0.003275,0.008007,0.003729,0.928000,2563.381787

0.046251,1.577254,9.410690,16.300587,-0.000077,0.014135,0.019450,0.924000,2563.381787

0.070201,1.617970,9.633428,16.306469,0.001521,0.005076,0.026645,0.920000,2563.381787

0.211507,1.776041,9.446616,16.312351,0.000455,0.008540,0.028244,0.920000,2563.381787

0.391134,1.855076,9.511281,16.306469,0.003387,0.010671,0.040235,0.920000,2563.381787

0.273778,1.754486,9.635822,16.300587,-0.000610,0.019465,0.022914,0.920000,2563.381787

0.355209,1.610784,9.516071,16.329998,0.000988,0.019731,-0.027181,0.916000,2563.381787

0.197137,1.668265,9.508886,16.312351,-0.000344,0.025860,-0.061021,0.916000,2563.381787

-0.181276,1.670660,9.551997,16.312351,0.004186,0.024527,-0.087934,0.916000,2563.381787

-0.207621,1.744905,9.492122,16.297646,-0.000610,0.008806,-0.077808,0.916000,2563.381787

-0.281867,1.761671,9.425060,16.291763,-0.002742,0.009605,-0.036773,0.912000,2563.381787

-0.344137,1.689820,9.556787,16.315292,-0.002476,-0.004251,-0.003998,0.912000,2563.381787

0.019906,1.699400,9.475356,16.300587,-0.003541,-0.014643,0.024247,0.912000,2563.381787

0.034276,1.752090,9.547207,16.306469,0.002854,-0.006116,0.051959,0.912000,2563.381787

0.304913,1.747301,9.470566,16.318233,-0.004341,-0.008780,0.053025,0.912000,2563.381787

0.563575,1.771251,9.559182,16.312351,-0.008871,-0.005316,0.024247,0.912000,2563.381787

0.201927,1.620364,9.573552,16.300587,-0.003009,0.013602,-0.042635,0.908000,2563.381787

0.173187,1.582044,9.645403,16.312351,-0.004874,0.011471,-0.096461,0.908000,2563.381787

-0.133375,1.663475,9.302915,16.312351,-0.002742,0.011204,-0.119909,0.908000,2563.381787

-0.150140,1.713770,9.532837,16.312351,-0.003009,0.006941,-0.090599,0.912000,2563.381787

-0.454308,1.730535,9.547207,16.297646,-0.006739,-0.003185,-0.055692,0.908000,2563.381787

-0.152535,1.759276,9.451406,16.324116,-0.007005,-0.014643,0.001331,0.908000,2563.381787

0.115707,1.771251,9.518467,16.321175,-0.001943,-0.013310,0.066081,0.908000,2563.381787

0.151632,1.665870,9.559182,16.312351,-0.000610,-0.007715,0.083668,0.904000,2563.381787

0.355209,1.855076,9.678933,16.300587,0.000722,-0.011445,0.053291,0.904000,2563.381787

0.383949,1.788016,9.372371,16.312351,-0.005673,0.004543,-0.003465,0.904000,2563.381787

0.216298,1.689820,9.587922,16.324116,-0.008604,-0.004517,-0.076210,0.904000,2563.381787

-0.030389,1.562884,9.463381,16.321175,-0.003808,0.012270,-0.101257,0.904000,2563.381787

-0.200436,1.625154,9.523256,16.338821,-0.004074,-0.001852,-0.082338,0.904000,2563.381787

-0.466283,1.891002,9.504096,16.341763,0.000455,-0.006649,-0.032510,0.904000,2563.381787

-0.001649,1.859866,9.530441,16.329998,-0.005940,-0.021304,0.027977,0.900000,2563.381787

0.036671,1.706585,9.566367,16.332939,-0.005673,-0.015975,0.045297,0.904000,2563.381787

0.333654,1.603599,9.583132,16.329998,-0.005940,-0.020238,0.014121,0.900000,2563.381787

0.429454,1.754486,9.413086,16.327057,-0.007805,-0.002652,-0.013857,0.904000,2563.381787

0.065411,1.562884,9.599897,16.321175,-0.002476,0.004276,-0.032776,0.900000,2563.381787

-0.035179,1.546119,9.580737,16.327057,-0.000877,0.001345,-0.046632,0.900000,2563.381787

0.024696,1.833521,9.475356,16.312351,-0.005140,-0.010379,-0.043701,0.900000,2563.381787

0.110917,1.855076,9.410690,16.338821,-0.002742,0.003743,-0.030645,0.900000,2563.381787

-0.195646,1.785621,9.633428,16.315292,-0.009137,-0.009313,-0.028779,0.896000,2563.381787

-0.166906,1.574859,9.365185,16.335880,-0.007538,-0.011712,-0.034109,0.900000,2563.381787

