ax,ay,az,gx,gy,gz,temp,volt,vel

0.410294,0.382139,9.647798,15.818233,0.003653,0.048242,-0.035974,3.576000,0.000000

0.587526,0.822823,9.643007,15.815292,-0.002476,0.037051,-0.014657,3.400000,0.000000

0.647401,0.712652,9.657377,15.841763,-0.009137,0.043446,0.013588,3.296000,0.000000

0.633031,0.406090,9.671748,15.847647,-0.012068,0.045844,0.019184,3.220000,0.000000

0.161212,0.446805,9.951965,15.847647,-0.034451,0.041581,-0.009061,3.168000,0.000000

0.213903,0.106712,9.769943,15.853529,-0.000610,0.043446,-0.052228,3.120000,0.000000

0.393529,0.662357,9.868139,15.859411,-0.018197,0.028791,-0.094329,3.064000,0.000000

0.118102,0.626431,9.789104,15.835880,-0.017664,0.046111,-0.072479,2.992000,0.000000

0.007931,0.937784,9.686118,15.871176,-0.014733,0.035186,-0.033309,2.944000,0.000000

-0.341742,0.523446,9.959150,15.877058,-0.026457,0.005609,0.009591,2.900000,0.000000

-0.365692,-0.056149,9.834609,15.862352,0.019907,-0.043154,-0.096461,2.852000,0.000000

-1.005162,0.104317,9.748388,15.885881,-0.014200,-0.030897,-0.216369,2.796000,0.000000

-0.145350,0.873118,9.302915,15.882940,-0.017664,-0.084722,-0.275257,2.744000,0.000000

-1.077013,0.679122,9.796288,15.879999,0.031632,-0.114033,-0.288847,2.700000,0.000000

0.098942,2.544842,8.778405,15.882940,0.006318,-0.119629,-0.160945,2.656000,0.000000

-0.978817,0.372559,9.511281,15.900587,-0.034984,-0.108970,-0.026115,2.612000,0.000000

-0.756080,1.670660,9.899275,15.882940,0.032165,-0.182514,-0.054093,2.564000,0.000000

-0.351322,1.582044,9.592712,15.906469,0.062808,-0.213690,0.042366,2.520000,0.000000

0.700091,1.000055,9.307705,15.909410,0.054547,-0.237139,0.050360,2.468000,0.000000

1.140775,1.443133,9.334050,15.912352,-0.011802,-0.238738,0.099656,2.428000,0.000000

0.609081,1.354517,9.678933,15.915293,0.028434,-0.175320,0.170801,2.384000,0.000000

1.715580,0.612061,9.681328,15.927057,0.049218,-0.216355,0.215300,2.336000,0.000000

2.175424,0.645592,8.627519,15.924116,-0.066960,-0.220618,0.182259,2.296000,0.000000

2.091598,1.150941,9.640613,15.938822,-0.125048,-0.164395,0.102587,2.256000,0.000000

1.231786,1.364097,10.057346,15.959410,-0.045909,-0.127623,0.022115,2.212000,0.000000

1.492843,0.782108,10.311218,15.947645,0.004452,-0.123359,-0.060755,2.172000,0.000000

0.707277,0.298314,10.040581,15.941763,0.095849,-0.132686,-0.116445,2.140000,0.000000

1.605409,-0.513598,9.535232,15.962351,0.059877,-0.180649,-0.168406,2.100000,0.000000

1.677259,-1.962585,9.180769,15.977058,-0.021927,-0.144943,-0.191321,2.060000,0.000000

2.019747,-1.526691,9.626243,15.962351,-0.100001,-0.131620,-0.219566,2.032000,0.000000

2.235299,-0.288466,10.263317,15.962351,-0.068025,-0.076195,-0.236886,1.984000,0.000000

2.750228,-0.693224,10.143566,15.991764,-0.048307,-0.034094,-0.207576,1.944000,0.000000

2.086808,-0.125605,10.004656,15.971176,0.010848,-0.009313,-0.103122,1.904000,0.000000

2.122733,-0.506413,9.805869,15.971176,-0.007538,-0.009846,-0.017854,1.868000,0.000000

1.437757,-0.413007,9.664562,15.977058,0.003653,-0.014110,0.080737,1.828000,0.000000

0.898878,0.391720,9.817844,15.982941,0.036428,0.016267,0.082336,1.796000,0.000000

0.225878,0.806058,9.446616,15.980000,-0.000077,-0.021571,-0.011459,1.760000,0.000000

0.434244,1.270692,9.604687,15.980000,0.016710,-0.039424,-0.060755,1.728000,0.000000

0.058226,1.565279,9.013118,15.982941,-0.082947,-0.017307,-0.053827,1.696000,0.000000

1.509608,0.142637,9.951965,15.968235,-0.029122,-0.130287,-0.037839,1.668000,0.000000

2.256854,-0.386662,9.654983,15.997646,0.060942,-0.092450,0.003996,1.636000,0.000000

1.792220,0.568951,9.688513,15.988823,0.020707,-0.059675,0.073542,1.600000,0.000000

1.952687,-0.310021,9.214299,16.003529,0.006318,-0.085522,0.131631,1.564000,0.000000

2.355050,-0.302836,9.537626,15.997646,0.003920,-0.047151,0.166005,1.536000,0.000000

2.115548,0.535421,9.540022,15.985882,0.033230,-0.009580,0.164939,1.508000,0.000000

2.122733,1.701795,9.226274,16.009411,0.040958,0.012270,0.161741,1.480000,0.000000

2.541862,0.305499,9.252620,16.015293,-0.054436,-0.034361,0.156146,1.448000,0.000000

2.151473,0.190538,9.578342,16.006470,0.034296,0.043979,0.097524,1.428000,0.000000

1.670074,0.089947,9.341235,16.006470,-0.005140,0.049841,-0.019720,1.364000,0.000000

0.980309,0.894674,9.623847,16.012352,0.018841,0.050108,-0.062354,1.332000,0.000000

1.131195,0.992869,9.458591,16.000587,-0.010736,0.025327,-0.029579,1.304000,0.000000

1.040184,1.186866,9.338840,16.015293,0.012979,0.029324,-0.005331,1.272000,0.000000

1.488053,1.083880,9.317285,16.000587,-0.020062,0.014135,0.034372,1.248000,0.000000

1.377882,1.407208,9.638218,16.000587,-0.021661,-0.005583,0.057022,1.224000,0.000000

0.997074,0.849168,10.016630,16.021175,-0.043244,0.038916,0.046097,1.200000,0.000000

0.932408,0.913834,10.088481,16.024117,-0.009404,0.026659,0.048761,1.180000,0.000000

1.327587,-0.345946,9.906460,16.021175,0.019374,0.019997,0.014388,1.160000,0.000000

1.622174,-1.052477,9.767549,16.015293,0.014844,0.001079,-0.018654,1.144000,0.000000

1.595829,-0.968652,9.803473,16.029999,-0.008071,-0.001586,-0.017588,1.128000,0.000000

1.411412,-0.676459,9.585527,16.018234,0.027368,0.010938,-0.031977,1.116000,0.000000

0.805472,0.779713,9.583132,16.024117,0.022039,0.006141,-0.036240,1.100000,0.000000

0.803077,0.985684,9.516071,16.024117,0.001788,-0.025568,-0.034375,1.084000,0.000000

0.953964,1.131781,9.587922,16.050587,-0.000877,-0.044220,-0.012525,1.076000,0.000000

2.932250,0.947364,10.193862,16.032940,-0.077884,-0.042888,0.094326,1.068000,0.000000

3.837567,0.841983,9.585527,16.027058,-0.067226,-0.054612,0.146819,1.056000,0.000000

1.837726,0.940179,9.750783,16.035881,-0.010736,0.063964,0.167870,1.044000,0.000000

1.100060,0.894674,9.631032,16.035881,0.029233,-0.001586,0.114311,1.036000,0.000000

2.012562,1.768856,10.246552,16.047646,0.044955,0.022129,0.071411,1.032000,0.000000

1.789825,-0.415402,9.434641,16.032940,-0.030188,0.079419,0.005861,1.024000,0.000000

1.073714,1.071905,9.858560,16.035881,0.028168,0.042380,-0.061821,1.016000,0.000000

1.155145,0.408485,9.808264,16.041763,-0.010469,0.041314,-0.132167,1.012000,0.000000

1.370697,0.911439,9.566367,16.056469,-0.009404,0.062898,-0.076476,1.008000,0.000000

0.968334,0.094737,9.609477,16.038822,-0.001943,0.024527,-0.109784,0.992000,0.000000

1.174305,0.228858,9.628637,16.047646,0.002054,0.013069,-0.046366,0.988000,0.000000

1.174305,0.324659,9.796288,16.068233,0.004719,0.009605,-0.015723,0.984000,0.000000

1.519188,0.533026,9.573552,16.065292,0.006051,0.028258,0.001864,0.976000,0.000000

1.444943,0.822823,9.580737,16.077057,-0.003009,0.022129,0.028510,0.976000,0.000000

1.442548,0.662357,9.544811,16.065292,-0.001943,0.033321,0.028777,0.972000,0.000000

1.313216,0.475545,9.590317,16.071175,-0.009937,0.040515,-0.008795,0.968000,0.000000

1.176700,0.137847,9.702883,16.062351,-0.013401,0.035452,-0.033043,0.964000,0.000000

0.807867,0.212093,9.645403,16.068233,-0.002209,0.035452,-0.049030,0.960000,0.000000

0.779127,0.142637,9.710068,16.062351,0.003387,0.015734,-0.081805,0.956000,0.000000

1.018629,0.281549,9.549602,16.094706,-0.001676,0.006408,-0.061288,0.956000,0.000000

0.930013,0.360584,9.633428,16.074116,0.007117,0.007474,-0.009860,0.952000,0.000000

1.368302,0.492310,9.578342,16.074116,0.003387,0.004276,0.020783,0.952000,0.000000

1.411412,0.480335,9.590317,16.082939,-0.001410,0.012004,0.052225,0.948000,0.000000

1.432967,0.324659,9.650192,16.074116,0.000455,0.017866,0.049028,0.944000,0.000000

1.782640,0.274364,9.619058,16.068233,0.004186,0.034919,0.051959,0.944000,0.000000

1.765875,0.432435,9.535232,16.077057,0.007117,0.054371,0.066881,0.944000,0.000000

1.282081,0.406090,9.755573,16.106470,0.004719,0.061832,0.064483,0.940000,0.000000

1.155145,0.463570,9.506492,16.112352,-0.001143,0.077553,-0.005331,0.936000,0.000000

1.318007,0.317474,9.688513,16.129999,-0.005407,0.079419,-0.047965,0.936000,0.000000

1.250946,0.324659,9.427456,16.106470,0.001788,0.091676,-0.090332,0.932000,0.000000

0.920433,0.377349,9.609477,16.147646,0.000722,0.087412,-0.081539,0.932000,0.000000

0.712067,0.365374,9.717253,16.135881,0.008716,0.087146,-0.080207,0.928000,0.000000

0.434244,0.374954,9.745994,16.129999,0.003120,0.061832,-0.009860,0.928000,0.000000

0.348024,0.135452,9.492122,16.165293,0.007384,0.046111,0.015986,0.928000,0.000000

-0.176486,0.765343,9.427456,16.147646,0.035096,0.014402,-0.050629,0.924000,0.000000

-0.011229,0.892279,9.504096,16.156469,0.003120,-0.020771,-0.127903,0.924000,0.000000

0.489330,1.462293,9.662168,16.162352,-0.003009,-0.042088,-0.196384,0.920000,0.000000

0.872533,1.033585,9.405901,16.162352,-0.011535,-0.000520,-0.293643,0.920000,0.000000

1.085690,0.870723,9.714858,16.165293,-0.001676,0.004543,-0.288580,0.920000,0.000000

1.385067,0.688702,9.470566,16.153528,0.003120,-0.011445,-0.168939,0.916000,0.000000

0.759967,0.647987,9.753179,16.162352,-0.024858,-0.024235,-0.103655,0.916000,0.000000

-0.037575,0.849168,9.690907,16.159410,0.005252,-0.016241,-0.067683,0.916000,0.000000

-0.183671,0.089947,9.611873,16.174116,-0.044044,-0.070600,-0.029845,0.916000,0.000000

-0.075895,0.865933,9.992681,16.153528,-0.011002,-0.078061,-0.056758,0.916000,0.000000

0.225878,0.521051,9.657377,16.144705,-0.008604,-0.084989,-0.049030,0.916000,0.000000

0.999469,-0.010644,9.547207,16.159410,-0.011002,-0.142012,0.219031,0.912000,0.000000

1.701210,0.219278,9.609477,16.150587,-0.008604,-0.118829,0.202244,0.908000,0.000000

1.332377,-0.137580,9.731624,16.156469,-0.005140,-0.110836,0.205175,0.908000,0.000000

1.756295,-0.405822,9.705278,16.168234,0.005785,-0.105506,0.149484,0.908000,0.000000

1.682050,0.030072,9.484936,16.174116,0.012180,-0.092983,0.084734,0.904000,0.000000

1.605409,0.327054,9.674143,16.162352,0.009249,-0.086588,0.005328,0.908000,0.000000

1.768270,0.592901,9.640613,16.174116,0.012180,-0.080192,-0.058357,0.908000,0.000000

1.804196,0.633617,9.568762,16.182940,0.002587,-0.057010,-0.081805,0.904000,0.000000

1.023419,-0.259726,10.220207,16.168234,0.008716,-0.069800,-0.055692,0.904000,0.000000

1.262921,0.315079,9.523256,16.177057,-0.005673,-0.021304,-0.016522,0.904000,0.000000

0.870138,0.204908,9.786709,16.185881,0.011380,-0.014110,0.052492,0.904000,0.000000

1.303637,0.379744,9.729228,16.209410,0.014312,-0.024502,0.084734,0.904000,0.000000

1.459313,0.676727,9.602292,16.206469,0.010315,-0.034361,0.122838,0.904000,0.000000

1.911971,0.556976,9.542417,16.203527,0.012713,-0.010113,0.146020,0.904000,0.000000

1.500028,0.384534,9.468171,16.203527,0.011380,0.000812,0.136694,0.904000,0.000000

1.842516,0.336634,9.619058,16.221176,0.013779,-0.005849,0.063150,0.900000,0.000000

2.175424,0.523446,9.484936,16.224117,-0.003808,0.020530,-0.018121,0.904000,0.000000

1.878441,0.487520,9.712463,16.224117,-0.003541,0.031455,-0.040237,0.904000,0.000000

1.571879,0.521051,9.566367,16.227058,-0.000610,0.038916,-0.082072,0.900000,0.000000

1.741925,0.573741,9.427456,16.230000,-0.000344,0.046377,-0.088467,0.904000,0.000000

1.777850,0.430040,9.501701,16.224117,-0.011269,0.047976,-0.068482,0.900000,0.000000

1.531163,0.475545,9.595107,16.221176,-0.005407,0.065030,-0.041569,0.900000,0.000000

1.437757,0.489915,9.563972,16.218235,-0.006739,0.063964,-0.016256,0.900000,0.000000

1.310822,0.422855,9.681328,16.224117,-0.004874,0.057569,0.006127,0.900000,0.000000

1.222206,0.458780,9.563972,16.227058,0.000455,0.059700,-0.006396,0.896000,0.000000

1.286871,0.561766,9.523256,16.230000,-0.004341,0.052772,-0.014923,0.896000,0.000000

1.344352,0.547396,9.551997,16.221176,-0.010469,0.056503,-0.023716,0.900000,0.000000

1.325192,0.415670,9.575947,16.221176,-0.012068,0.054638,-0.035707,0.896000,0.000000

1.176700,0.415670,9.585527,16.221176,-0.011535,0.063431,-0.051429,0.900000,0.000000

1.080899,0.588111,9.544811,16.218235,-0.003009,0.054904,-0.059422,0.900000,0.000000

1.186280,0.801268,9.640613,16.218235,-0.003275,0.050374,-0.049297,0.900000,0.000000

1.143170,0.909044,9.561577,16.224117,-0.004607,0.055437,-0.037306,0.896000,0.000000

0.867743,1.004844,9.614267,16.218235,-0.003009,0.052239,-0.014657,0.896000,0.000000

1.013839,0.849168,9.501701,16.215292,-0.002476,0.040515,0.002130,0.896000,0.000000

1.411412,0.767738,9.326865,16.215292,0.007916,0.044512,0.001065,0.900000,0.000000

1.665284,0.353399,9.022697,16.227058,-0.029921,0.032788,0.045297,0.892000,0.000000

0.858163,0.916229,9.789104,16.221176,-0.024858,0.053838,0.058087,0.892000,0.000000

0.843793,1.062325,9.652588,16.227058,0.063607,0.082616,0.040235,0.896000,0.000000

1.332377,-0.106445,9.041858,16.209410,-0.044577,0.006941,0.018118,0.896000,0.000000

1.327587,1.268297,9.875324,16.212351,-0.025391,0.061299,-0.004531,0.896000,0.000000

1.603014,2.195169,9.834609,16.227058,0.066538,0.101801,-0.006396,0.896000,0.000000

1.301241,1.467083,9.530441,16.230000,-0.014999,0.117523,-0.049563,0.896000,0.000000

0.704881,1.668265,9.604687,16.227058,-0.029655,0.105798,-0.089799,0.900000,0.000000

0.623451,1.481453,9.827424,16.238823,0.052416,0.144169,-0.160412,0.928000,0.000000

1.538348,0.288734,8.960427,16.218235,-0.051238,0.076488,-0.220099,0.924000,0.000000

0.839003,2.444251,9.896879,16.215292,-0.030188,0.131379,-0.259536,0.988000,0.000000

1.162330,1.814361,9.305309,16.238823,0.066538,0.162821,-0.328283,1.264000,0.000000

1.732345,0.841983,8.893367,16.224117,0.039359,0.124184,-0.396231,1.264000,0.000000

1.174305,0.921019,9.295730,16.241764,-0.022460,0.138840,-0.465511,1.244000,0.000000

0.920433,1.342542,9.595107,16.212351,-0.031520,0.146834,-0.498819,1.292000,0.000000

0.937198,1.232371,9.513677,16.232941,-0.018463,0.138040,-0.564102,1.352000,0.000000

1.049764,1.744905,9.525652,16.227058,0.008183,0.127648,-0.588084,2.256000,0.000000

1.018629,1.778436,9.549602,16.250587,-0.046442,0.179076,-0.585419,2.552000,0.000000

0.379159,1.644315,9.602292,16.247646,-0.006739,0.158558,-0.644041,3.172000,0.000000

0.829423,2.233490,9.027488,16.250587,-0.090408,0.176944,-0.662694,3.544000,0.000000

0.276173,1.285062,9.405901,16.250587,-0.006739,0.142570,-0.663759,4.388000,0.000000

0.403109,2.571187,9.259805,16.268234,-0.064828,0.175612,-0.596611,4.832000,0.000000

-0.056735,1.629945,9.099339,16.271175,-0.014733,0.185737,-0.559573,4.804000,0.000000

-0.396827,1.802386,8.996352,16.271175,-0.067759,0.167351,-0.516406,5.300000,0.000000

-0.607589,2.432276,9.336445,16.256470,-0.058433,0.140705,-0.456452,5.872000,0.000000

-0.839906,1.869447,9.865745,16.288822,0.022039,0.155094,-0.415150,6.000000,0.000000

-0.490233,1.773646,9.460986,16.291763,-0.062963,0.117789,-0.354929,6.228000,0.000000

-0.286657,2.171219,9.128078,16.279999,-0.044843,0.099403,-0.274991,6.408000,0.000000

0.106127,1.797596,9.633428,16.297646,-0.057367,0.096472,-0.189456,6.784000,0.000000

0.012721,2.523287,9.789104,16.282940,0.016177,0.082883,-0.150553,6.844000,0.000000

-0.236361,1.330567,9.499307,16.297646,-0.027257,0.063964,-0.125772,6.940000,0.000000

-1.134493,0.973709,8.838281,16.303528,0.021506,0.058635,-0.145490,7.028000,0.000000

-0.885411,0.418065,9.144843,16.312351,-0.064295,0.071425,-0.145756,7.000000,0.000000

-0.631539,1.256322,9.262199,16.309410,-0.057900,0.069559,-0.114314,7.092000,0.000000

-0.478258,1.469478,9.978311,16.315292,-0.075220,0.083149,-0.046366,7.136000,0.000000

-0.720155,2.135294,10.232183,16.315292,-0.039514,0.028524,0.069545,7.160000,0.000000

-0.894992,1.982013,9.592712,16.332939,0.026302,0.026393,0.206774,7.168000,0.000000

-1.522487,1.526959,9.860954,16.327057,0.039625,0.005076,0.295772,7.188000,0.000000

-0.703390,1.617970,9.504096,16.338821,0.089720,-0.054346,0.348532,7.204000,0.000000

-0.535739,0.818033,9.566367,16.341763,0.032697,-0.049283,0.387702,7.220000,0.000000

0.565970,0.319869,9.460986,16.347647,-0.021128,-0.031430,0.428204,7.248000,0.000000

0.649796,1.907767,9.765154,16.362352,0.007916,0.009339,0.458314,7.248000,0.000000

1.078505,2.089788,9.772339,16.353529,0.056146,0.054371,0.433000,7.252000,0.000000

-0.418383,-0.350737,9.161609,16.356470,0.000455,0.104200,0.331744,7.252000,0.000000

-0.727340,0.966524,10.229787,16.341763,-0.070956,0.099936,0.231288,7.228000,0.000000

-0.487838,2.803504,10.004656,16.347647,0.034296,0.090344,0.118308,7.248000,0.000000

-1.103358,-0.286071,9.973520,16.362352,-0.146632,0.094607,0.047962,7.268000,0.000000

-0.425568,2.372401,10.931528,16.374117,-0.027257,0.097538,-0.017055,7.276000,0.000000

-0.504603,1.189261,8.792775,16.365294,-0.125848,0.127648,-0.000534,7.284000,0.000000

-1.002767,1.335357,10.179492,16.379999,-0.006473,0.133510,-0.032776,7.280000,0.000000

-0.689020,1.249136,9.784313,16.379999,-0.093073,0.074089,-0.165208,7.272000,0.000000

0.300123,1.766461,9.643007,16.359411,0.002854,0.108197,-0.282718,7.296000,0.000000

0.352814,1.402418,9.954360,16.382940,-0.022993,0.141238,-0.347468,7.292000,0.000000

0.216298,2.293365,9.065807,16.374117,-0.057633,0.120987,-0.409554,7.304000,0.000000

0.043856,2.197564,10.057346,16.368235,-0.022993,0.138040,-0.435667,7.312000,0.000000

0.060621,1.320987,9.688513,16.391764,-0.051238,0.146301,-0.482298,7.304000,0.000000

0.692906,1.179681,9.132869,16.397646,-0.070956,0.146301,-0.550779,7.316000,0.000000

1.229391,2.832244,9.245434,16.371176,-0.016332,0.132978,-0.492158,7.332000,0.000000

0.391134,0.300709,9.453801,16.397646,-0.076552,0.190001,-0.487628,7.328000,0.000000

-0.413593,2.008358,10.507609,16.388823,-0.077352,0.209719,-0.536923,7.328000,0.000000

0.506095,1.153336,9.707673,16.377058,-0.076552,0.208653,-0.637646,7.356000,0.000000

0.621056,1.292247,9.164003,16.409410,-0.008871,0.179608,-0.635248,7.348000,0.000000

0.489330,0.556976,10.052556,16.400587,-0.021927,0.195863,-0.645906,7.360000,0.000000

-0.983607,-0.587843,8.754455,16.406469,-0.030987,0.172680,-0.662960,7.356000,0.000000

-1.381181,-0.036989,10.457314,16.403528,-0.043511,0.217446,-0.695468,7.364000,0.000000

-1.752409,0.877909,9.880115,16.418234,-0.068558,0.184938,-0.714654,7.352000,2437.822956

-0.799191,3.807017,4.867338,16.385881,-0.049639,0.176411,-0.695202,7.356000,2437.822956

-1.747618,1.814361,14.777929,16.394705,0.205632,0.024261,-0.515073,7.372000,2437.822956

-1.309330,-4.118102,10.921947,16.409410,0.070269,0.227572,-0.487361,7.372000,2437.822956

-1.958380,3.730376,10.905183,16.409410,0.180051,0.044512,-0.446326,7.388000,2437.822956

-0.133375,2.748419,9.501701,16.409410,0.149674,0.018132,-0.304035,7.392000,2437.822956

1.006654,1.241951,9.427456,16.429998,0.040958,-0.016508,-0.244614,7.396000,2437.822956

0.630636,1.177286,10.066926,16.403528,0.139549,0.063964,-0.201447,7.400000,2437.822956

-2.245783,1.900582,8.273056,16.421175,0.232011,0.171881,-0.140694,7.396000,2437.822956

2.309545,2.065838,6.984535,16.450586,0.080661,-0.117764,-0.292311,7.408000,2437.822956

-1.970355,-0.700409,9.274175,16.418234,-0.028056,0.118056,-0.458317,7.404000,2437.822956

-1.618287,0.283944,9.916039,16.435881,0.226949,0.102867,-0.510543,7.408000,2437.822956

-0.389642,1.191656,10.260922,16.441763,0.107840,0.134310,-0.562504,7.408000,2437.822956

-0.497418,2.978341,10.232183,16.429998,0.120364,0.159890,-0.566501,7.420000,2437.822956

0.359999,2.552027,10.787827,16.447645,0.158468,0.102068,-0.389836,7.416000,2437.822956

-0.626749,3.129227,9.616662,16.447645,0.237341,0.135376,-0.268329,7.420000,2437.822956

-1.371600,0.049232,9.748388,16.444704,0.093184,0.061299,-0.202513,7.436000,2437.822956

-0.648305,0.612061,8.878996,16.447645,0.114235,0.107664,-0.220366,7.432000,2437.822956

-0.765660,-1.730268,10.256132,16.447645,0.026036,0.095673,-0.228360,7.436000,2437.822956

-0.075895,-0.039384,9.130473,16.444704,-0.038448,0.014935,-0.324020,7.432000,2437.822956

-2.446964,3.155572,8.819120,16.444704,0.164863,0.231302,-0.462847,7.436000,2437.822956

-0.868646,1.095855,7.750942,16.429998,0.366308,0.187069,-0.599009,7.436000,2437.822956

-2.090106,1.146151,11.633268,16.438822,-0.207918,0.077553,-0.622724,7.432000,2437.822956

1.006654,3.172337,10.119617,16.429998,-0.014200,-0.006116,-0.605404,7.432000,2437.822956

0.685721,2.247860,9.470566,16.409410,0.103044,0.174013,-0.622191,7.444000,2437.822956

-1.457821,0.727022,9.563972,16.427057,-0.078151,0.114059,-0.683211,7.440000,2437.822956

-3.024164,1.306617,9.657377,16.406469,0.056413,0.060766,-0.768746,7.452000,2437.822956

-3.167865,1.206026,9.072993,16.424116,0.092385,0.012270,-0.806317,7.444000,2437.822956

-2.008676,1.625154,9.152028,16.406469,0.044422,-0.030364,-0.734638,7.448000,2437.822956

-1.484166,1.960457,9.542417,16.421175,0.100912,-0.034627,-0.751692,7.464000,2437.822956

-1.498536,1.076695,9.262199,16.409410,0.123828,-0.107905,-0.731707,7.472000,2437.822956

0.510885,1.792806,10.426179,16.400587,0.088122,-0.190774,-0.574494,7.472000,2437.822956

-0.291447,1.177286,10.919553,16.385881,0.118498,-0.090584,-0.340807,7.476000,16.117146

-1.951195,0.736602,9.123288,16.385881,0.168593,-0.139347,-0.107652,7.472000,16.117146

-2.588270,-0.951886,9.791499,16.382940,0.091586,-0.236872,-0.052761,7.468000,16.117146

-2.940338,0.743787,8.893367,16.356470,0.143279,-0.165727,-0.058623,7.468000,16.117146

-1.984725,0.293524,8.428732,16.377058,0.017243,-0.285635,-0.015989,7.472000,16.117146

-0.871041,1.998778,9.302915,16.391764,-0.001676,-0.324538,0.035705,7.464000,16.117146

-0.454308,2.757999,6.663603,16.377058,0.056679,-0.180649,0.040235,7.468000,16.117146

0.520465,2.916070,9.575947,16.379999,-0.037116,-0.156401,0.133230,7.480000,16.117146

0.362394,-0.580658,12.509846,16.385881,-0.027257,-0.155868,0.074075,7.480000,16.117146

-1.187184,-1.095588,11.786550,16.368235,0.140881,-0.031696,-0.082871,7.480000,16.117146

-2.023046,-0.290861,9.405901,16.382940,0.179518,0.062099,-0.144690,7.488000,16.117146

-1.529672,1.136571,8.031159,16.400587,0.021772,0.054904,-0.108452,7.488000,16.117146

-2.552345,3.866893,8.744875,16.385881,0.009515,0.077287,-0.151352,7.492000,16.117146

-1.146469,1.162916,9.204719,16.391764,0.205099,-0.099378,-0.247279,7.488000,16.117146

-0.782426,0.140242,7.408454,16.368235,-0.066960,-0.138281,-0.342139,7.492000,16.117146

-0.016019,5.723033,5.470883,16.374117,-0.147964,-0.059941,-0.414350,7.488000,16.117146

1.614989,0.755763,14.509687,16.362352,-0.371526,-0.212891,-0.464445,7.488000,16.117146

0.537230,-6.647243,20.377485,16.374117,0.241338,0.148166,-0.508945,7.492000,16.117146

-0.595614,6.017621,10.768666,16.382940,0.365243,-0.048483,-0.800188,7.504000,16.117146

1.935922,6.575660,3.413561,16.374117,0.286636,-0.030364,-0.648571,7.512000,16.117146

-0.346532,2.120924,8.452682,16.382940,-0.155425,-0.079127,-0.493756,7.512000,16.117146

-1.402736,3.150782,12.960110,16.385881,0.285570,0.061566,-0.654700,7.516000,16.117146

1.248551,2.271810,11.197375,16.385881,0.346324,-0.090318,-0.776206,7.520000,16.117146

0.587526,1.189261,8.447892,16.377058,0.116633,0.007207,-0.603539,7.532000,16.117146

-1.726063,1.958062,8.567643,16.365294,0.114235,0.040249,-0.445793,7.528000,16.117146

-2.037416,-0.149555,10.184282,16.368235,0.109439,-0.058875,-0.381842,7.532000,16.117146

0.470170,2.247860,10.943503,16.391764,0.105708,-0.090851,-0.188124,7.532000,16.117146

-2.650541,0.545001,9.930409,16.391764,0.484618,-0.031430,-0.109517,7.532000,16.117146

-3.237321,4.044125,7.671906,16.377058,0.686863,-0.075929,-0.097527,7.544000,16.117146

0.965939,2.810689,9.444221,16.368235,-0.211915,-0.136150,-0.014390,7.540000,16.117146

-0.298632,-2.266752,9.099339,16.371176,0.112636,0.012270,0.066614,7.536000,17.176176

1.476078,-0.743520,9.599897,16.356470,0.184848,-0.005050,-0.063952,7.544000,17.176176

-0.176486,0.633617,10.153147,16.382940,-0.077884,0.061566,-0.083138,7.540000,17.176176

-0.705785,3.742352,9.551997,16.362352,0.024171,0.126050,-0.071946,7.544000,17.176176

-0.717760,1.728140,10.169911,16.374117,0.029233,0.130579,-0.120176,7.536000,17.176176

-2.274523,-0.587843,9.401111,16.365294,-0.014999,0.080751,-0.176133,7.540000,17.176176

-2.116452,0.446805,9.540022,16.374117,-0.112791,0.091942,-0.215037,7.540000,17.176176

-1.139284,3.311248,11.408137,16.368235,0.056946,0.155360,-0.340274,7.540000,17.176176

0.731227,3.172337,9.396320,16.359411,0.103843,0.217180,-0.385040,7.544000,17.176176

0.491725,1.471873,9.214299,16.350588,0.124094,0.191866,-0.488161,7.544000,17.176176

-1.012347,2.010753,8.203601,16.391764,-0.012601,0.250488,-0.569965,7.552000,17.176176

-1.376390,2.058653,7.846742,16.379999,-0.057633,0.066895,-0.706393,7.556000,17.176176

0.451009,1.783226,10.864468,16.371176,-0.091474,0.059167,-0.761285,7.560000,17.176176

-1.599127,2.918465,10.507609,16.353529,0.065472,0.131112,-0.757554,7.560000,17.176176

-2.363138,3.375914,9.537626,16.368235,-0.005673,-0.006116,-0.660029,7.568000,17.176176

-3.119965,1.229976,9.508886,16.368235,0.115301,-0.021837,-0.579557,7.568000,17.176176

-3.481613,0.219278,9.437036,16.371176,0.077463,-0.106839,-0.556641,7.564000,17.176176

-2.899623,0.585716,11.139894,16.359411,-0.021128,-0.176652,-0.507346,7.568000,30.595793

-1.493746,0.633617,11.678774,16.347647,0.126226,-0.090052,-0.428473,7.576000,30.595793

-1.524882,1.469478,9.841794,16.356470,0.246933,-0.181981,-0.403692,7.580000,30.595793

-0.641119,0.703072,7.983259,16.338821,0.126759,-0.276575,-0.321888,7.576000,30.595793

-1.294960,0.300709,10.052556,16.374117,0.168593,-0.324805,-0.266997,7.576000,30.595793

-0.217201,-2.008090,11.865585,16.365294,0.177120,-0.320275,-0.151086,7.580000,30.595793

-1.769174,0.104317,9.877720,16.365294,0.224284,-0.091650,-0.112715,7.588000,30.595793

-2.106871,3.153177,4.735612,16.341763,0.172057,-0.049283,-0.044501,7.580000,30.595793

-1.726063,3.866893,4.395519,16.350588,-0.114123,-0.109237,-0.020252,7.580000,30.595793

-0.188461,0.224068,10.177097,16.341763,0.046287,-0.163862,-0.089000,7.580000,30.595793

-0.617169,-0.841716,11.889536,16.347647,0.068137,-0.067402,-0.233422,7.580000,30.595793

-0.978817,0.123477,10.979428,16.347647,0.072667,-0.072465,-0.361058,7.584000,30.595793

0.024696,2.532867,9.017907,16.341763,-0.021927,-0.080725,-0.338942,7.584000,30.595793

-0.277076,2.602323,8.948452,16.341763,0.104109,0.091409,-0.386372,7.588000,30.595793

-1.280590,1.680240,10.802197,16.359411,0.002321,-0.084456,-0.433003,7.588000,30.595793

-0.181276,1.222791,12.081138,16.353529,0.064406,-0.173987,-0.455919,7.592000,30.595793

-2.039811,2.080208,11.017749,16.338821,0.065472,-0.064471,-0.397830,7.588000,30.595793

-0.133375,-0.994997,9.350815,16.347647,-0.204188,-0.148140,-0.284583,7.588000,30.595793

0.264198,2.156849,11.731464,16.335880,0.015644,-0.032762,-0.364522,7.592000,30.595793

0.793497,1.773646,8.627519,16.368235,0.216557,-0.110836,-0.393833,7.600000,25.946595

1.377882,3.854918,8.074269,16.356470,0.178186,-0.113767,-0.344804,7.596000,25.946595

0.086966,0.643197,9.487331,16.350588,0.115301,-0.049016,-0.309098,7.604000,25.946595

-1.012347,1.095855,9.951965,16.359411,0.145145,-0.041555,-0.345870,7.604000,25.946595

-0.159721,1.304222,10.133986,16.350588,0.088122,-0.057277,-0.306433,7.604000,25.946595

-0.571664,-0.662089,8.926897,16.341763,-0.059232,-0.098045,-0.220899,7.608000,25.946595

-2.382299,0.360584,10.459709,16.335880,-0.063229,-0.068468,-0.231024,7.608000,25.946595

-0.447123,1.411998,10.780642,16.368235,0.091319,-0.082591,-0.159079,7.604000,25.946595

0.132472,0.937784,9.796288,16.350588,-0.088010,-0.030364,-0.114047,7.608000,25.946595

0.350419,3.145992,9.075388,16.341763,0.181650,-0.010379,-0.088733,7.604000,25.946595

-0.154930,0.645592,8.663445,16.341763,0.140348,-0.048217,-0.147355,7.612000,25.946595

-1.958380,-0.046569,9.183164,16.350588,0.040691,-0.047151,-0.235021,7.608000,25.946595

0.582735,1.668265,8.462263,16.371176,0.031632,-0.067669,-0.265398,7.612000,25.946595

-0.696205,1.012030,9.355605,16.388823,-0.010469,0.063431,-0.314161,7.612000,25.946595

-1.132098,2.439461,8.907737,16.359411,-0.017930,-0.090318,-0.381309,7.616000,25.946595

-0.109425,2.693333,10.335168,16.368235,0.060143,-0.076462,-0.425808,7.612000,25.946595

-1.503326,0.355794,9.240644,16.365294,0.074799,-0.057543,-0.413551,7.616000,25.946595

-0.921337,1.720955,9.872930,16.382940,-0.065361,-0.134018,-0.313095,7.616000,25.946595

-1.098568,3.057376,10.797407,16.379999,0.049485,-0.128422,-0.273125,7.620000,25.946595

-0.894992,0.497100,10.289662,16.368235,0.098514,-0.185179,-0.257937,7.624000,25.946595

-0.918942,0.806058,9.707673,16.374117,0.020440,-0.175320,-0.252874,7.624000,26.982338

-0.741710,1.091065,10.282477,16.362352,0.002854,-0.175852,-0.242216,7.616000,26.982338

-1.242269,0.801268,10.155541,16.365294,0.040425,-0.203298,-0.252075,7.620000,26.982338

-1.158444,1.761671,8.857441,16.362352,0.035629,-0.213690,-0.244614,7.624000,26.982338

-0.554899,0.767738,9.128078,16.347647,-0.097070,-0.197969,-0.292311,7.624000,133.165561

-1.172814,-0.875246,12.119457,16.350588,0.085191,-0.169457,-0.312828,7.624000,133.165561

-1.627867,1.304222,10.383068,16.362352,0.129956,-0.201433,-0.292311,7.628000,133.165561

0.621056,3.387889,8.541298,16.347647,0.050284,-0.244866,-0.192920,7.628000,133.165561

-0.942892,2.135294,8.500583,16.341763,0.161399,-0.239271,-0.147888,7.624000,133.165561

-1.402736,1.155731,11.147079,16.344706,0.194973,-0.256324,-0.105254,7.624000,133.165561

-1.067433,0.873118,10.634545,16.350588,0.176054,-0.463632,-0.078075,7.628000,133.165561

1.449733,1.821546,9.865745,16.338821,0.155537,-0.346921,0.037836,7.632000,133.165561

-1.915270,0.916229,8.000024,16.353529,0.161132,-0.255791,0.125236,7.628000,133.165561

1.523978,1.728140,8.129354,16.344706,-0.041113,-0.442048,0.281916,7.632000,133.165561

-1.129703,1.433553,10.521979,16.350588,0.059610,-0.292297,0.286979,7.632000,133.165561

0.242643,1.785621,8.809541,16.356470,-0.042179,-0.255258,0.226225,7.632000,133.165561

0.886903,1.914952,9.817844,16.327057,-0.109061,-0.137748,0.178529,7.636000,133.165561

0.098942,1.950877,9.975915,16.338821,0.058811,-0.038891,0.140691,7.632000,133.165561

0.290543,2.614298,9.535232,16.329998,0.026036,-0.017840,0.118308,7.636000,34.237416

0.180372,1.318592,8.706554,16.347647,-0.049107,-0.038358,0.067414,7.636000,34.237416

0.242643,1.943692,10.433364,16.335880,-0.057367,-0.033828,-0.016788,7.636000,34.237416

-0.521369,1.064720,10.110036,16.324116,0.039093,-0.003185,-0.037573,7.640000,34.237416

-0.466283,-0.065729,9.920830,16.335880,-0.063762,-0.011712,-0.075943,7.636000,34.237416

-1.472191,0.470755,9.743598,16.338821,-0.064028,0.001878,-0.065551,7.640000,34.237416

-0.708180,1.538934,9.386741,16.321175,0.013779,-0.007448,-0.086335,7.640000,34.237416

-0.305817,0.688702,9.307705,16.309410,-0.101600,-0.030364,-0.025315,7.640000,34.237416

0.582735,2.154454,10.325588,16.321175,0.055613,0.050907,0.021316,7.640000,34.237416

0.690511,3.761512,9.506492,16.324116,0.161665,0.018132,0.018385,7.644000,34.237416

0.158817,0.894674,11.032119,16.329998,0.072400,-0.094048,0.057288,7.644000,34.237416

0.371974,2.106554,10.581855,16.341763,0.200569,-0.015975,0.079671,7.644000,34.237416

-0.760870,-0.123210,9.415481,16.327057,0.147543,0.033321,0.060752,7.644000,34.237416

-1.199159,3.246583,7.544970,16.332939,-0.020595,-0.066070,0.087931,7.648000,34.237416

-1.850604,5.682318,3.037543,16.335880,-0.033652,0.032255,0.012789,7.648000,34.237416

-1.333280,-7.705842,15.788628,16.335880,-0.269471,-0.094048,0.068480,7.648000,34.237416

-0.504603,5.105118,12.155383,16.329998,0.092918,0.083948,-0.027713,7.652000,34.237416

0.029486,4.216566,8.304192,16.324116,0.264786,-0.007182,-0.132700,7.652000,34.237416

-0.595614,1.481453,5.149951,16.318233,-0.094139,-0.037825,-0.015989,7.652000,34.237416

-0.212411,1.218001,10.198652,16.321175,-0.265741,-0.178251,0.037303,7.652000,27.666932

-0.894992,1.208421,11.269226,16.321175,0.154471,-0.121228,-0.023184,7.656000,27.666932

-0.260311,0.379744,9.724438,16.332939,-0.033119,-0.071666,-0.065551,7.660000,27.666932

-0.370482,2.180799,7.909013,16.327057,-0.108261,-0.077794,-0.041303,7.656000,27.666932

-0.006439,0.070787,10.821357,16.309410,-0.144767,-0.001053,-0.014124,7.656000,27.666932

-0.418383,-2.740966,10.177097,16.338821,-0.251884,-0.050082,-0.044234,7.664000,27.666932

0.419874,5.452396,8.893367,16.321175,0.291965,0.066895,-0.185193,7.664000,27.666932

-1.199159,3.150782,9.305309,16.327057,-0.175143,0.009339,-0.146289,7.664000,27.666932

-1.436266,0.212093,7.839557,16.324116,-0.111192,-0.118030,-0.177199,7.664000,27.666932

-2.015861,-0.065729,10.191467,16.335880,-0.045110,-0.108171,-0.206510,7.664000,27.666932

0.944383,1.158126,10.711186,16.335880,-0.050439,-0.232875,-0.066617,7.660000,27.666932

-0.377667,2.940020,11.235696,16.321175,0.014844,-0.190241,0.019450,7.660000,27.666932

-0.427963,4.125555,8.342512,16.324116,0.213359,-0.131886,0.176663,7.668000,27.666932

-1.335675,0.758158,10.993798,16.324116,0.054814,-0.220885,0.333876,7.668000,27.666932

-0.449518,1.294642,9.377160,16.324116,-0.017930,-0.237139,0.340538,7.672000,27.666932

0.436639,1.031190,9.465776,16.327057,-0.052837,-0.161996,0.363453,7.672000,27.666932

-0.226781,1.965247,10.663286,16.344706,-0.087211,-0.023169,0.403156,7.672000,27.666932

-0.463888,2.147269,9.906460,16.327057,0.041757,-0.035693,0.247009,7.672000,28.523970

0.795892,2.238280,8.811935,16.347647,0.015910,0.008273,0.195582,7.676000,28.523970

1.418597,2.252650,9.111313,16.335880,-0.093872,0.027192,0.115110,7.680000,28.523970

0.491725,2.796319,10.093271,16.332939,0.119564,0.028524,0.043166,7.680000,28.523970

1.112035,0.652777,7.683881,16.318233,0.103576,0.065296,0.091129,7.680000,28.523970

0.182767,-0.427377,8.273056,16.315292,-0.089875,0.134043,0.099656,7.684000,28.523970

-0.883016,0.894674,10.701606,16.329998,-0.145566,0.092209,0.079404,7.684000,28.523970

0.154027,2.791529,10.136381,16.338821,0.056679,0.139373,0.097257,7.684000,28.523970

0.750387,1.258717,9.813054,16.341763,0.037760,-0.032229,0.074075,7.684000,28.523970

0.439034,-0.046569,8.534113,16.335880,-0.113058,0.004010,0.169202,7.684000,28.523970

0.470170,-0.022619,10.363909,16.321175,-0.115189,0.072757,0.199046,7.684000,28.523970

0.633031,0.334239,7.990444,16.341763,-0.039247,0.104733,0.224627,7.688000,28.523970

-0.301027,1.881422,7.806027,16.332939,-0.025125,0.123385,0.217432,7.692000,28.523970

-0.559689,1.471873,10.011841,16.329998,-0.127180,0.122053,0.115377,7.688000,28.523970

0.333654,1.562884,10.201047,16.312351,-0.021128,0.165220,0.010124,7.692000,28.523970

-0.315397,0.698282,9.310100,16.324116,-0.077085,0.216647,-0.065551,7.688000,28.523970

-1.558412,2.391561,9.029882,16.327057,-0.080283,0.182007,-0.114047,7.692000,28.523970

0.348024,0.901859,8.593988,16.324116,-0.105064,0.002144,-0.197716,7.692000,28.523970

0.834213,2.482572,11.099179,16.306469,-0.067226,0.129780,-0.178531,7.692000,28.523970

0.451009,2.987921,9.398716,16.321175,0.156603,0.097538,-0.201713,7.692000,28.523970

0.201927,1.582044,8.471843,16.303528,0.007384,0.011471,-0.164409,7.696000,28.523970

0.575550,1.555699,10.244158,16.309410,-0.186335,0.032255,-0.116445,7.700000,28.523970

-0.284262,1.953272,11.803315,16.315292,-0.015799,0.093275,-0.125772,7.700000,28.523970

0.400714,1.689820,9.518467,16.315292,0.119298,0.024794,-0.208375,7.700000,28.523970

1.116825,1.814361,8.500583,16.341763,-0.031254,-0.040223,-0.232090,7.704000,28.523970

-0.013624,1.100645,8.929292,16.321175,0.089188,-0.050882,-0.219566,7.700000,28.523970

-0.437543,2.132899,9.738809,16.318233,0.196039,-0.001852,-0.216902,7.700000,28.523970

-1.745224,-0.123210,9.458591,16.338821,-0.020062,0.014135,-0.185459,7.700000,28.523970

-1.419501,2.082603,9.532837,16.332939,-0.000610,-0.034894,-0.198249,7.700000,28.523970

-1.268615,0.537816,9.939990,16.324116,-0.021927,-0.104174,-0.124439,7.704000,28.523970

0.506095,3.385494,8.440707,16.324116,0.070802,-0.144943,-0.015989,7.708000,28.523970

0.925223,2.046678,10.715977,16.318233,0.004452,-0.106839,0.079138,7.708000,28.523970

-0.830326,1.577254,10.562695,16.327057,0.004452,-0.155335,0.115643,7.708000,28.523970

1.219811,3.742352,9.520862,16.324116,0.148076,-0.198235,0.219830,7.712000,28.523970

0.640216,0.576136,8.352092,16.321175,0.063874,-0.130820,0.241147,7.712000,28.523970

-0.839906,1.196446,9.765154,16.327057,-0.128779,-0.090851,0.208372,7.708000,15.204096

-1.225504,2.628668,10.756692,16.324116,0.039892,-0.031430,0.204642,7.712000,15.204096

-0.109425,1.237161,8.857441,16.329998,-0.006206,-0.076462,0.193184,7.712000,15.204096

-0.090265,1.198841,9.887300,16.327057,-0.045643,-0.098045,0.234752,7.716000,15.204096

0.089361,1.591624,9.923224,16.321175,0.037760,-0.034627,0.298703,7.716000,15.204096

-1.124913,2.472991,10.624966,16.315292,-0.022460,0.009339,0.320553,7.716000,15.204096

-2.200277,1.206026,11.022539,16.318233,-0.097869,-0.001852,0.393297,7.716000,15.204096

-1.359625,2.856194,9.187954,16.324116,0.145678,0.031189,0.463110,7.724000,15.204096

1.126405,1.107830,9.209509,16.324116,-0.060831,0.087412,0.459913,7.724000,15.204096

0.834213,0.077972,10.256132,16.324116,0.051883,0.165486,0.461245,7.724000,15.204096

0.240248,3.043006,8.191626,16.335880,-0.062430,0.151896,0.327481,7.720000,15.204096

0.098942,-0.939911,10.042975,16.332939,-0.103998,0.188402,0.227291,7.724000,15.204096

0.034276,1.548514,10.337564,16.327057,-0.089875,0.235566,0.081270,7.728000,15.204096

0.867743,2.544842,9.980705,16.309410,-0.075486,0.294454,-0.021318,7.724000,15.204096

0.209112,3.129227,9.786709,16.329998,0.051616,0.301382,-0.110317,7.728000,15.204096

0.000746,1.026400,9.920830,16.332939,-0.110393,0.300316,-0.213438,7.732000,31.976529

-0.784821,0.657567,9.686118,16.312351,-0.087211,0.169749,-0.234755,7.728000,31.976529

-0.782426,1.706585,9.190349,16.318233,-0.093872,0.204922,-0.325619,7.732000,31.976529

0.594711,0.655172,10.062136,16.327057,-0.089875,0.156959,-0.314427,7.732000,31.976529

-1.120123,0.087552,9.353210,16.324116,0.047353,0.206521,-0.292044,7.736000,31.976529

-0.344137,0.825218,9.449011,16.315292,-0.019796,0.145501,-0.289913,7.736000,31.976529

0.024696,0.640802,8.902946,16.321175,-0.025391,0.147633,-0.259802,7.732000,31.976529

-0.042365,1.891002,9.908854,16.318233,0.054547,0.120987,-0.223830,7.736000,31.976529

-0.813561,1.388048,9.858560,16.347647,-0.022194,0.123118,-0.241150,7.740000,31.976529

-0.320187,-0.111235,9.710068,16.341763,0.076131,0.114858,-0.247279,7.740000,31.976529

-0.777636,-0.135185,9.410690,16.338821,-0.091741,0.033321,-0.320289,7.740000,31.976529

-2.080526,1.773646,8.627519,16.332939,-0.033652,0.062898,-0.297906,7.740000,31.976529

0.067806,0.676727,8.936477,16.335880,-0.003541,0.026393,-0.299772,7.744000,31.976529

-1.290170,-0.159135,9.171188,16.335880,-0.019263,-0.012511,-0.293909,7.740000,31.976529

-0.341742,1.768856,10.548325,16.324116,-0.048307,-0.011179,-0.176932,7.740000,31.976529

-0.329767,1.984407,9.825029,16.338821,0.057745,-0.018640,-0.139894,7.744000,31.976529

-0.712970,2.231094,7.863508,16.327057,-0.062963,-0.085522,-0.123640,7.744000,31.976529

-0.346532,1.984407,10.141171,16.341763,-0.041113,-0.105240,-0.134298,7.748000,31.976529

-0.581244,0.475545,9.439431,16.321175,-0.066427,-0.036493,-0.125772,7.748000,31.976529

-0.729735,0.485125,10.387858,16.344706,-0.050972,-0.053546,-0.095928,7.748000,31.976529

-1.266220,0.389324,11.204560,16.332939,-0.000344,-0.003451,-0.091132,7.752000,31.976529

-0.219596,2.334080,8.967612,16.344706,0.015377,-0.080725,-0.101257,7.752000,31.976529

-0.260311,1.392838,10.512400,16.321175,0.092652,-0.126557,-0.037839,7.748000,31.976529

-0.492628,2.487362,9.863349,16.335880,0.136085,-0.140413,0.022648,7.756000,31.976529

0.189952,-1.409335,10.833332,16.347647,-0.090408,-0.192640,0.155080,7.756000,31.976529

-0.269891,2.944810,9.525652,16.321175,0.126492,-0.009846,0.200378,7.756000,31.976529

1.171910,0.992869,7.614426,16.315292,0.095583,-0.110569,0.274721,7.756000,31.976529

0.446219,1.270692,8.328141,16.306469,0.056679,-0.066070,0.300035,7.756000,31.976529

-0.269891,0.688702,10.361513,16.324116,-0.135174,0.056769,0.148685,7.756000,31.976529

0.015116,2.786739,9.621452,16.335880,0.035895,-0.000254,0.026911,7.756000,31.976529

-0.016019,0.932994,9.429851,16.329998,0.096382,0.007474,-0.077542,7.760000,31.976529

-0.023204,-0.015434,7.837162,16.329998,0.014045,-0.017574,-0.129769,7.756000,16.743867

-1.369205,2.484967,9.341235,16.332939,-0.164751,0.065829,-0.148154,7.760000,16.743867

-0.277076,1.479059,10.004656,16.329998,-0.021128,-0.067669,-0.185992,7.764000,16.743867

0.839003,2.513707,10.524375,16.332939,0.041224,-0.049549,-0.150553,7.760000,16.743867

-1.105753,3.157967,8.991562,16.327057,0.044688,-0.050615,-0.108185,7.764000,16.743867

-0.825536,0.312684,8.799960,16.321175,-0.099468,-0.090318,-0.011459,7.764000,16.743867

-0.181276,0.700677,9.207114,16.315292,-0.116788,0.009073,0.064483,7.764000,16.743867

-0.305817,1.912557,10.474079,16.335880,-0.058966,0.044512,0.059420,7.764000,16.743867

0.652191,1.043165,10.711186,16.327057,-0.007538,-0.044753,0.033839,7.764000,16.743867

-0.111820,0.552186,9.971126,16.312351,-0.110926,0.010671,0.084201,7.768000,16.743867

-2.181117,0.959339,7.988049,16.321175,-0.079483,0.001345,0.008259,7.768000,16.743867

0.094152,0.147428,9.288545,16.321175,-0.070690,0.058635,-0.023184,7.768000,16.743867

-1.922455,-0.475278,9.700488,16.321175,0.083059,0.032255,-0.114314,7.764000,16.743867

-0.454308,0.209698,8.881392,16.309410,-0.056301,-0.108704,-0.089266,7.772000,16.743867

0.850978,3.246583,9.384345,16.303528,-0.005407,0.029324,-0.052761,7.772000,16.743867

1.059344,2.051468,9.101733,16.312351,0.030299,0.027991,-0.055958,7.772000,34.570096

0.189952,1.855076,10.074111,16.312351,0.035096,-0.086588,-0.029046,7.776000,34.570096

0.273778,1.538934,9.484936,16.327057,0.034563,0.068227,-0.007462,7.772000,34.570096

-0.437543,1.002450,10.775852,16.312351,-0.079483,0.039716,-0.026914,7.776000,34.570096

-0.964447,3.689661,9.374765,16.303528,0.062275,0.054105,-0.045300,7.776000,34.570096

-0.224386,0.882698,10.493239,16.303528,-0.051505,0.048509,-0.051162,7.780000,34.570096

-0.231571,1.668265,10.270503,16.297646,0.018308,0.035452,-0.060222,7.780000,34.570096

0.110917,1.395233,9.401111,16.303528,0.033763,0.037051,-0.016522,7.780000,34.570096

0.350419,1.074300,10.066926,16.312351,-0.009937,0.010671,-0.012792,7.780000,34.570096

-0.768055,-0.374687,11.403347,16.312351,-0.001943,-0.054346,-0.003998,7.780000,34.570096

-0.839906,0.894674,9.535232,16.303528,0.039093,0.066895,-0.006663,7.780000,34.570096

0.182767,-0.101654,8.134145,16.306469,-0.038714,0.111128,-0.012259,7.784000,34.570096

0.182767,0.458780,9.734018,16.303528,0.035096,0.101535,-0.094329,7.780000,34.570096

0.106127,0.554581,10.045371,16.291763,0.052682,0.067961,-0.117511,7.784000,34.570096

0.989889,2.020333,9.870534,16.303528,-0.013401,0.106331,-0.167606,7.784000,34.570096

-1.019533,1.979617,9.372371,16.303528,0.044955,0.174546,-0.289913,7.784000,35.615494

-0.075895,0.576136,9.458591,16.300587,0.047353,0.021330,-0.364522,7.784000,35.615494

-0.449518,1.306617,8.696975,16.300587,-0.007272,0.054105,-0.411686,7.788000,35.615494

-0.763265,1.764066,8.004814,16.306469,-0.081615,0.075155,-0.387704,7.788000,35.615494

-0.406408,0.856353,10.902788,16.297646,-0.025924,0.061299,-0.289913,7.792000,35.615494

-1.670978,1.610784,8.981982,16.288822,0.132621,-0.087920,-0.298706,7.792000,35.615494

0.774337,-0.403427,11.535073,16.291763,-0.316901,-0.239537,-0.097527,7.792000,35.615494

0.197137,2.061048,13.108601,16.271175,0.233610,0.001878,-0.136697,7.796000,35.615494

-0.044760,0.442015,9.101733,16.288822,0.023638,-0.169191,0.003996,7.792000,35.615494

-0.621959,2.916070,7.410849,16.312351,0.031632,-0.106306,0.066348,7.792000,35.615494

-2.176327,-0.343551,10.275292,16.279999,0.234410,-0.133485,0.023181,7.792000,35.615494

-3.249296,0.073182,10.996194,16.291763,0.068137,-0.128689,0.037037,7.796000,35.615494

-0.296237,1.749696,8.059899,16.274117,0.013779,-0.139347,0.071944,7.800000,35.615494

-1.699718,-0.949491,8.213181,16.288822,0.105975,-0.053013,0.044498,7.796000,35.615494

-0.959657,0.810848,10.478869,16.291763,-0.202589,-0.222483,0.143355,7.800000,35.615494

-1.179999,2.798714,12.596066,16.300587,-0.053636,-0.157467,0.213702,7.800000,35.615494

0.716857,4.460858,11.142290,16.297646,0.236541,-0.183047,0.318421,7.796000,35.615494

-0.027994,1.948482,9.168794,16.291763,0.229880,-0.187044,0.397028,7.800000,35.615494

-0.945287,-0.252541,8.565248,16.282940,-0.112258,-0.089785,0.403689,7.800000,35.615494

-1.314120,2.278995,9.113708,16.282940,-0.147698,-0.046885,0.397028,7.800000,35.615494

-1.014742,1.914952,10.280083,16.291763,0.198704,-0.049016,0.301368,7.800000,35.615494

0.405504,0.245623,8.146120,16.277058,-0.169281,-0.008248,0.279518,7.800000,35.615494

0.575550,2.525682,9.652588,16.277058,0.016710,0.130313,0.221429,7.800000,35.615494

-0.248336,0.231253,9.183164,16.297646,0.009515,0.176411,0.167071,7.800000,35.615494

-0.363297,-0.084889,9.705278,16.291763,-0.142635,0.056503,0.125502,7.804000,35.615494

-0.849486,1.495824,9.837004,16.285881,-0.037915,0.178809,-0.112448,7.804000,35.615494

0.376764,-1.270424,9.396320,16.274117,0.013512,0.207587,-0.252608,7.804000,35.615494

0.072596,-0.163925,9.336445,16.279999,-0.036050,0.245958,-0.370384,7.804000,35.615494

-0.389642,-0.108840,10.672866,16.297646,-0.199391,0.155094,-0.435401,7.804000,18.249542

1.519188,1.486243,10.095666,16.288822,-0.022727,0.057036,-0.377312,7.804000,18.249542

-0.095055,1.970037,8.986773,16.277058,-0.041113,0.102601,-0.142559,7.804000,18.249542

-0.425568,1.395233,8.459867,16.285881,-0.045909,0.093808,0.061552,7.808000,18.249542

-0.042365,1.591624,9.939990,16.282940,-0.056834,0.055970,0.095126,7.808000,18.249542

-1.436266,1.778436,9.791499,16.268234,0.185647,-0.001586,0.153215,7.804000,18.249542

-1.603917,2.346056,8.661049,16.265293,0.030299,-0.033828,0.138826,7.808000,18.249542

-0.933312,2.278995,10.447734,16.271175,-0.071756,-0.016241,0.164406,7.808000,18.249542

-1.967960,1.138966,10.538745,16.277058,0.083858,0.015734,0.094859,7.808000,18.249542

0.467775,0.822823,9.566367,16.277058,0.050817,-0.065803,0.047163,7.812000,18.249542

0.398319,2.276600,8.344907,16.259411,-0.032319,-0.087120,0.044231,7.812000,18.249542

-0.233966,1.814361,8.040739,16.277058,0.028967,0.018132,0.009591,7.812000,18.249542

0.063016,-0.379477,9.142448,16.277058,-0.081348,-0.006116,0.118042,7.812000,18.249542

-1.522487,-1.078822,13.293017,16.259411,-0.089609,0.184405,0.165205,7.812000,18.249542

-1.661398,1.651500,11.168635,16.271175,0.075864,0.118056,0.059686,7.816000,36.597927

0.585131,2.444251,7.944938,16.277058,-0.020329,0.026393,-0.028779,7.816000,36.597927

0.944383,0.688702,7.897038,16.268234,-0.096803,0.033321,-0.059955,7.816000,36.597927

0.089361,0.465965,10.586645,16.265293,-0.072289,0.043180,-0.107652,7.812000,36.597927

-0.176486,-0.008249,9.166399,16.271175,-0.078417,0.113526,-0.139894,7.816000,36.597927

-0.207621,-0.290861,8.069479,16.253529,-0.022727,0.108729,-0.104988,7.820000,36.597927

0.702486,-0.609399,12.976874,16.265293,-0.064828,0.121786,-0.122841,7.820000,36.597927

1.447338,3.529195,13.807946,16.253529,0.051616,0.257416,-0.199315,7.820000,36.597927

-1.726063,2.755604,10.320798,16.256470,0.068403,0.274736,-0.313361,7.820000,36.597927

-1.077013,2.209539,8.256291,16.256470,0.046021,0.217180,-0.461514,7.820000,36.597927

0.098942,1.220396,9.741203,16.262352,-0.111992,0.210252,-0.541986,7.820000,36.597927

0.388739,0.810848,11.642849,16.262352,-0.020329,0.201192,-0.565968,7.816000,36.597927

0.489330,-0.559103,10.792617,16.256470,0.228814,0.040782,-0.622724,7.824000,36.597927

-1.970355,1.342542,8.804750,16.250587,0.291965,0.053838,-0.500684,7.824000,36.597927

-0.801586,3.577096,6.256449,16.247646,-0.127713,-0.139347,-0.365055,7.824000,36.597927

0.266593,0.010911,9.724438,16.241764,-0.022993,-0.209960,-0.144158,7.828000,36.597927

0.439034,0.073182,12.131433,16.259411,0.128890,-0.094315,0.028244,7.820000,36.597927

-0.190856,1.392838,12.061977,16.274117,0.060143,-0.132686,0.156679,7.828000,36.597927

-1.515302,1.045560,11.355447,16.227058,0.285304,-0.099378,0.183058,7.828000,36.597927

-1.469796,1.265902,7.121051,16.235882,0.144345,-0.105773,0.188388,7.828000,36.597927

-1.108148,-0.547128,5.334367,16.253529,-0.132776,-0.199568,0.239016,7.828000,36.597927

-0.609984,-1.615307,9.616662,16.256470,-0.239361,-0.025301,0.305898,7.828000,36.597927

-0.346532,0.937784,10.399834,16.244705,0.195240,0.029857,0.240881,7.824000,36.597927

-1.318910,0.149823,9.017907,16.238823,0.038826,-0.020505,0.249940,7.824000,36.597927

-1.433871,2.537657,9.846584,16.250587,-0.079217,-0.063938,0.120973,7.828000,36.597927

-1.041088,4.434513,9.123288,16.241764,0.178719,0.102601,-0.106853,7.824000,36.597927

-0.437543,2.207144,8.902946,16.241764,0.014045,-0.021837,-0.154550,7.828000,36.597927

-0.140560,-0.602214,12.335010,16.241764,-0.150629,-0.030097,-0.156681,7.828000,36.597927

-1.869765,0.561766,10.435759,16.250587,-0.135174,0.132178,-0.168406,7.828000,18.711397

0.441429,1.804781,8.730505,16.256470,-0.017397,0.083948,-0.190522,7.832000,18.711397

0.618661,-0.542338,8.716135,16.230000,-0.037649,0.108729,-0.242482,7.828000,18.711397

0.661771,0.758158,10.483660,16.221176,-0.002742,0.022929,-0.361058,7.828000,18.711397

0.673746,0.633617,10.433364,16.253529,-0.097603,0.053838,-0.328283,7.836000,18.711397

-0.226781,2.609508,7.509045,16.241764,0.084125,0.127382,-0.332280,7.832000,18.711397

1.325192,0.116292,7.810817,16.244705,-0.008871,-0.180649,-0.257138,7.832000,18.711397

-0.626749,-1.026132,12.993640,16.230000,-0.037116,-0.018107,-0.239285,7.832000,18.711397

-0.866251,1.400023,10.519585,16.232941,0.128890,-0.068735,-0.173468,7.828000,18.711397

0.458195,2.528077,9.159214,16.241764,0.142214,-0.124958,-0.071946,7.832000,18.711397

-0.569269,2.101763,8.708950,16.235882,-0.016065,-0.102842,-0.036773,7.836000,18.711397

-1.560807,1.194051,11.331496,16.256470,-0.090941,-0.137748,-0.086069,7.832000,18.711397

0.841398,2.020333,11.669194,16.221176,0.010048,-0.212091,-0.122041,7.836000,18.711397

-0.772846,1.708980,10.577065,16.238823,0.267451,-0.102042,-0.150819,7.840000,37.541775

-3.122360,0.487520,8.469448,16.241764,0.059610,-0.243534,-0.152684,7.836000,37.541775

-1.797914,0.633617,8.217971,16.227058,0.096648,-0.168924,-0.096727,7.840000,37.541775

-1.266220,1.402418,6.100773,16.232941,-0.006739,-0.187044,-0.019986,7.836000,37.541775

-0.363297,-0.013039,9.650192,16.221176,-0.149030,-0.300290,0.106051,7.840000,37.541775

-0.308212,-0.300441,14.176780,16.230000,0.076397,-0.157200,0.219297,7.844000,37.541775

-1.515302,3.148387,9.729228,16.218235,0.180318,-0.123093,0.296838,7.840000,37.541775

-1.781149,2.963970,7.700646,16.215292,0.133154,-0.074863,0.480697,7.844000,37.541775

-1.522487,-0.209430,8.287426,16.221176,0.063874,-0.147874,0.545714,7.840000,37.541775

-2.971473,-0.690829,13.312178,16.230000,-0.053636,-0.136150,0.468973,7.840000,37.541775

-2.011071,1.754486,9.149633,16.206469,0.160333,-0.077261,0.241147,7.840000,37.541775

-1.685348,0.506680,6.943820,16.221176,0.227748,0.055171,0.222228,7.844000,37.541775

-1.230294,2.935230,9.245434,16.209410,-0.020329,-0.098845,0.100988,7.840000,37.541775

-0.425568,0.106712,10.751902,16.224117,-0.042445,-0.016774,-0.057291,7.844000,37.541775

-0.918942,1.464688,10.732741,16.212351,-0.000610,0.029324,-0.221965,7.844000,38.019024

3.337008,0.140242,11.630874,16.203527,0.072134,-0.114033,-0.209174,7.844000,38.019024

2.252064,-0.266911,12.040422,16.203527,0.101178,0.092209,-0.097527,7.844000,38.019024

-0.423173,3.086117,5.037385,16.206469,-0.080016,0.067694,0.032241,7.844000,38.019024

-0.935707,3.328013,7.228827,16.227058,-0.213514,0.019465,0.203310,7.844000,38.019024

1.334772,-5.135985,18.940474,16.209410,-0.082681,0.043446,0.113778,7.844000,38.019024

-2.672096,8.383900,8.428732,16.200586,0.522189,0.133777,-0.138029,7.844000,38.019024

-0.114215,-0.951886,1.262834,16.200586,-0.317701,0.047710,-0.123906,7.848000,38.019024

-0.734525,0.358189,10.153147,16.212351,-0.051505,0.130846,-0.006396,7.848000,38.019024

0.046251,-0.784235,13.836687,16.206469,-0.182604,0.037051,-0.210773,7.848000,38.019024

2.091598,3.040611,9.137658,16.206469,-0.091474,0.028258,-0.320023,7.848000,38.019024

1.914366,-1.272819,13.520544,16.200586,0.034563,0.154295,-0.104188,7.848000,38.019024

-0.641119,2.896910,10.548325,16.224117,0.438253,0.172148,-0.123640,7.848000,38.019024

-3.038534,4.585399,7.619215,16.215292,-0.240160,-0.000520,-0.150819,7.848000,38.019024

0.532440,-1.785353,7.669511,16.206469,-0.137839,-0.147075,-0.166007,7.852000,38.019024

1.339562,1.936507,10.668076,16.218235,-0.027790,0.004809,-0.230225,7.852000,38.019024

1.226996,0.772528,9.365185,16.197645,-0.058699,0.045578,-0.195052,7.852000,38.019024

-0.423173,1.385653,7.070756,16.203527,-0.038448,0.076488,-0.137762,7.848000,38.019024

0.391134,-1.694342,10.414204,16.221176,-0.035517,0.003477,-0.017588,7.848000,38.019024

-1.031508,3.608231,14.236655,16.215292,0.052149,0.116990,0.011190,7.848000,38.019024

0.882113,3.028636,8.095824,16.194704,0.313815,0.008273,-0.101790,7.852000,38.019024

1.435363,0.904254,7.283913,16.197645,-0.131976,-0.195304,-0.091664,7.844000,38.019024

0.482145,1.776041,9.072993,16.194704,0.066538,0.143103,0.052758,7.848000,38.019024

0.434244,1.380862,8.754455,16.206469,0.169126,-0.045552,0.146287,7.852000,38.019024

-0.902177,0.523446,9.338840,16.191763,0.145411,-0.023969,0.056489,7.852000,38.019024

-2.861303,3.373519,10.014235,16.197645,-0.064561,-0.040490,-0.039171,7.852000,38.019024

-1.151259,1.009634,10.773457,16.194704,0.053482,-0.039690,-0.031177,7.852000,38.019024

-2.197882,1.481453,8.716135,16.177057,0.095849,-0.111369,-0.171603,7.852000,18.843664

-0.511788,2.504127,10.327983,16.200586,-0.073355,-0.220618,-0.130301,7.852000,18.843664

0.074991,-0.305231,9.741203,16.185881,-0.062163,-0.016774,-0.031444,7.852000,18.843664

-0.976422,1.740115,9.377160,16.174116,0.000988,-0.044486,0.014654,7.852000,18.843664

-0.878226,1.503009,10.668076,16.203527,0.093184,-0.089519,0.095392,7.852000,18.843664

-0.557294,0.300709,9.302915,16.185881,0.119831,-0.035960,0.084734,7.856000,18.843664

-0.018414,1.754486,9.204719,16.182940,0.084125,-0.158266,0.043166,7.856000,18.843664

-0.324977,0.650382,11.077624,16.185881,0.019907,-0.106306,0.129766,7.856000,18.843664

-1.977540,0.410880,10.251343,16.177057,0.173923,-0.127090,0.124170,7.856000,18.843664

-2.245783,-0.645324,10.579460,16.185881,-0.051771,-0.118030,0.135095,7.852000,18.843664

-2.166747,2.731653,7.566525,16.179998,0.047619,-0.095114,0.231555,7.852000,18.843664

1.145565,-1.584172,11.300361,16.177057,-0.083480,-0.144943,0.291775,7.856000,18.843664

-0.875831,2.199959,11.192585,16.177057,0.060410,-0.003718,0.324017,7.856000,18.843664

0.894088,1.926927,8.838281,16.179998,0.034829,-0.012511,0.347732,7.856000,18.843664

0.676141,2.130504,9.963940,16.179998,-0.007538,0.106864,0.292308,7.852000,37.245525

-0.461493,3.862103,9.408296,16.182940,-0.118920,0.181740,0.148152,7.856000,37.245525

1.377882,2.573582,10.914762,16.174116,0.104909,0.258748,0.025046,7.856000,37.245525

0.786312,1.522169,8.890971,16.179998,-0.038448,0.298451,-0.137762,7.856000,37.245525

-0.825536,-0.822555,11.369817,16.188822,-0.162620,0.286460,-0.219300,7.852000,37.245525

-0.085475,2.084998,11.415322,16.168234,0.035362,0.334423,-0.258203,7.856000,37.245525

0.798287,-1.095588,9.494516,16.179998,-0.155425,0.126316,-0.315759,7.856000,37.245525

-0.933312,2.118529,9.951965,16.171175,-0.102665,0.232635,-0.212905,7.856000,37.245525

-0.011229,0.465965,11.568604,16.179998,-0.041113,0.173213,-0.105254,7.856000,37.245525

-1.148864,2.518497,6.524692,16.179998,0.231212,0.202258,-0.071680,7.856000,37.245525

-0.406408,-3.548088,9.561577,16.191763,0.003653,0.079152,0.058620,7.856000,37.245525

-1.026718,10.783710,-0.296324,16.177057,0.072667,0.292589,0.058087,7.856000,37.245525

1.318007,-5.624569,15.733542,16.171175,0.197371,0.074356,0.094859,7.856000,37.245525

-0.279472,2.120924,12.038027,16.177057,-0.258812,0.085547,-0.209974,7.856000,37.245525

0.573155,2.015543,9.334050,16.162352,0.395086,0.383719,-0.259536,7.860000,37.245525

-0.298632,2.046678,8.404782,16.171175,-0.068825,-0.163062,-0.288047,7.856000,36.425122

-3.575018,3.864498,10.996194,16.185881,-0.238561,0.058635,-0.375713,7.856000,36.425122

0.508490,2.063443,7.329418,16.177057,0.088122,0.312573,-0.351732,7.860000,36.425122

0.003141,0.413275,11.410532,16.179998,-0.303578,0.054105,-0.236087,7.860000,36.425122

2.331100,-2.158976,8.886181,16.150587,0.044155,0.083149,-0.130568,7.860000,36.425122

-0.083080,6.391243,8.378437,16.182940,0.520590,0.176144,-0.315493,7.860000,36.425122

0.331258,4.348292,10.153147,16.179998,0.099047,0.303780,-0.249677,7.860000,36.425122

-5.479059,1.459898,10.512400,16.150587,0.099047,0.147899,-0.411419,7.856000,36.425122

2.208954,0.806058,9.707673,16.165293,-0.071223,-0.256857,-0.257937,7.860000,36.425122

-0.926127,2.125714,10.033396,16.182940,0.109705,-0.087120,-0.148154,7.860000,36.425122

0.015116,0.307894,10.483660,16.165293,0.157668,-0.185712,-0.095928,7.860000,36.425122

-1.855394,1.246742,9.223879,16.138823,0.044688,-0.209693,-0.074877,7.860000,36.425122

-0.485443,4.218961,9.947175,16.171175,0.182982,-0.180382,-0.070614,7.864000,36.223960

0.592316,1.177286,9.561577,16.156469,0.063341,-0.229678,0.040235,7.860000,36.223960

-1.441056,2.441856,9.573552,16.156469,0.164596,-0.102575,0.069279,7.864000,36.223960

-1.714088,1.277877,8.737690,16.147646,-0.065361,-0.062872,0.084734,7.864000,36.223960

-0.492628,1.874237,10.114826,16.135881,0.035629,-0.087920,0.049294,7.864000,36.223960

2.067648,1.210816,9.116103,16.156469,-0.104531,-0.098845,-0.108452,7.864000,36.223960

0.800682,3.481295,7.465934,16.150587,-0.008071,-0.020238,0.024780,7.860000,36.223960

1.325192,0.918624,10.177097,16.150587,0.008183,-0.086321,0.077006,7.864000,36.223960

-1.936825,0.025282,11.331496,16.135881,0.119564,-0.068202,-0.036773,7.860000,36.223960

-1.041088,1.697005,10.569880,16.165293,0.047886,-0.139880,-0.117778,7.860000,36.223960

-1.831444,4.324342,8.040739,16.147646,0.143279,-0.029831,-0.033043,7.860000,36.223960

1.167120,-2.740966,9.566367,16.138823,-0.096537,-0.080725,0.023447,7.864000,36.223960

-1.069828,2.487362,10.141171,16.156469,-0.090941,0.023195,0.014121,7.860000,36.223960

0.850978,2.073023,9.532837,16.147646,0.230679,-0.028765,0.011723,7.868000,36.223960

-0.190856,-1.205759,9.870534,16.135881,-0.075220,-0.024768,0.011190,7.864000,36.223960

-1.187184,3.407049,8.069479,16.150587,0.036161,-0.005316,-0.003465,7.860000,36.044927

-2.355953,2.580767,10.397439,16.150587,0.144079,0.077553,-0.046632,7.860000,36.044927

-1.946405,0.604876,10.368698,16.129999,-0.000344,-0.002652,0.074875,7.864000,36.044927

-2.413434,3.533985,10.157937,16.153528,-0.019263,0.111128,0.060486,7.868000,36.044927

-2.389484,3.078931,10.009445,16.144705,-0.015532,0.081284,-0.000268,7.868000,36.044927

-2.897228,1.352122,8.110195,16.144705,-0.067492,0.081017,-0.013324,7.868000,36.044927

-1.908085,-0.111235,11.326706,16.138823,-0.157823,0.060766,0.033040,7.868000,36.044927

-1.903295,0.482730,11.621294,16.129999,0.089720,-0.026900,-0.010660,7.872000,36.044927

-1.505722,0.255203,7.549760,16.141764,-0.029388,-0.099378,-0.029046,7.864000,36.044927

1.188675,1.426368,10.512400,16.129999,-0.029122,-0.146009,0.028777,7.864000,36.044927

0.853373,2.868170,8.629914,16.141764,-0.293986,-0.027166,0.058087,7.864000,36.044927

1.092875,2.317315,10.718371,16.138823,0.143279,0.115658,-0.047165,7.868000,36.044927

-1.309330,-0.815370,11.496753,16.132940,-0.085345,0.021063,-0.165741,7.868000,36.044927

-0.336952,2.041888,8.740085,16.138823,0.138217,0.072757,-0.410354,7.872000,36.044927

-0.971632,1.038375,9.290939,16.129999,0.160866,0.178809,-0.517738,7.864000,36.070300

-1.639843,1.629945,9.362790,16.132940,-0.288390,-0.076462,-0.464712,7.872000,36.070300

1.660494,0.727022,11.005774,16.144705,0.186446,0.033587,-0.357860,7.868000,36.070300

0.343234,2.825059,10.790222,16.135881,0.018841,-0.044220,-0.192121,7.868000,36.070300

-0.906967,4.594979,7.971283,16.135881,-0.012601,-0.002385,-0.057291,7.868000,36.070300

-0.933312,1.689820,10.718371,16.124117,0.115567,0.069826,0.006127,7.868000,36.070300

-0.154930,1.627550,10.145962,16.118235,-0.135440,-0.124692,-0.122041,7.868000,36.070300

-0.296237,4.868011,10.169911,16.135881,0.070802,0.075422,-0.135631,7.872000,36.070300

0.707277,-0.896801,8.016789,16.135881,-0.075753,0.012270,-0.216902,7.872000,36.070300

1.444943,2.027518,9.992681,16.138823,-0.052837,0.112460,-0.273658,7.872000,36.070300

0.836608,3.450159,9.233459,16.129999,-0.191397,0.051174,-0.355729,7.872000,36.070300

1.296451,0.573741,10.938713,16.106470,-0.043511,0.089011,-0.365588,7.872000,36.070300

-0.533344,-1.766193,9.973520,16.127058,0.015111,-0.043687,-0.365321,7.872000,36.070300

-0.566874,2.080208,10.342353,16.129999,-0.162886,-0.017041,-0.402360,7.868000,36.070300

0.211507,2.120924,9.257409,16.132940,0.101445,-0.034361,-0.371983,7.868000,36.070300

0.618661,1.895792,9.252620,16.121176,-0.113324,-0.137482,-0.251542,7.872000,36.070300

2.491566,3.102882,9.652588,16.129999,0.043089,-0.142811,0.035438,7.872000,36.070300

0.843793,2.432276,8.095824,16.147646,0.127825,-0.020505,0.136694,7.868000,36.070300

0.060621,2.013148,9.975915,16.118235,0.120897,0.058635,0.337340,7.876000,36.070300

-2.291288,-0.341156,10.498030,16.121176,0.031898,0.093541,0.305098,7.872000,36.070300

-2.925968,1.098250,10.066926,16.112352,-0.026724,0.088745,0.155346,7.872000,36.070300

-2.379904,2.616693,8.055109,16.112352,0.008449,0.048242,0.084467,7.872000,36.070300

-1.544042,0.650382,10.418994,16.121176,-0.097869,-0.021571,-0.006130,7.868000,36.070300

-0.557294,2.834639,10.478869,16.109411,0.103310,0.044512,-0.188390,7.872000,36.070300

0.211507,2.619088,9.046648,16.106470,0.148609,0.055703,-0.394366,7.872000,36.070300

0.158817,0.147428,8.352092,16.127058,-0.115722,0.057302,-0.474837,7.872000,36.070300

-1.666188,-0.010644,10.181887,16.124117,-0.176742,0.202524,-0.517738,7.872000,36.070300

0.098942,3.464530,9.417875,16.118235,0.053748,0.039716,-0.490825,7.872000,36.070300

0.166002,0.576136,8.522139,16.118235,0.039359,-0.069267,-0.531860,7.872000,36.070300

-0.075895,-0.257331,9.463381,16.112352,-0.036050,-0.053546,-0.562770,7.872000,17.966893

0.381554,0.873118,8.759245,16.112352,-0.011535,-0.098845,-0.601407,7.872000,17.966893

-0.154930,1.486243,10.351933,16.124117,-0.049906,-0.109770,-0.526531,7.876000,17.966893

-0.380062,0.525841,10.533955,16.121176,0.067871,-0.156667,-0.461514,7.872000,17.966893

-1.278195,2.358031,9.652588,16.127058,0.112903,-0.258456,-0.366121,7.872000,17.966893

-1.376390,-0.341156,10.577065,16.127058,0.053215,-0.266983,-0.221432,7.872000,17.966893

-1.802704,2.535262,9.264594,16.118235,0.093184,-0.356248,-0.055426,7.872000,17.966893

-1.397946,3.840548,8.390412,16.106470,0.128624,-0.222750,0.163607,7.872000,17.966893

0.759967,0.207303,10.682446,16.106470,0.006584,-0.298692,0.180660,7.872000,17.966893

0.786312,2.537657,9.734018,16.100588,0.071867,-0.220885,0.148152,7.872000,17.966893

0.031881,3.531590,8.443103,16.103529,0.116367,-0.106572,0.065016,7.868000,17.966893

1.291661,1.816756,8.241920,16.103529,0.001788,-0.177185,-0.034908,7.868000,17.966893

0.192347,0.791688,10.512400,16.100588,0.013246,-0.019972,-0.097527,7.872000,17.966893

-0.178881,0.166588,9.657377,16.106470,0.131555,-0.011179,-0.167340,7.872000,17.966893

-0.210016,0.116292,9.252620,16.115294,0.081993,-0.015975,-0.241683,7.872000,35.003552

0.738412,1.491034,9.837004,16.091763,0.147809,-0.026101,-0.197184,7.872000,35.003552

-0.358507,0.386930,9.029882,16.100588,-0.020595,-0.000254,-0.191854,7.868000,35.003552

-3.864816,-3.945661,9.465776,16.091763,-0.230834,-0.187577,-0.246479,7.872000,35.003552

-0.760870,4.719520,12.421230,16.088821,0.210694,-0.086854,-0.116978,7.872000,35.003552

1.274896,0.339029,8.795171,16.103529,0.131821,-0.215555,-0.162543,7.876000,35.003552

-0.930917,1.929322,6.919870,16.106470,-0.081348,-0.240603,0.004529,7.872000,35.003552

-1.144074,2.259835,9.149633,16.103529,0.050550,-0.128422,0.203043,7.868000,35.003552

-1.917665,-0.547128,11.707515,16.082939,-0.084546,-0.201699,0.315757,7.872000,35.003552

-1.160839,1.869447,10.818962,16.082939,-0.011535,-0.135883,0.424473,7.872000,35.003552

-1.824259,2.403536,9.896879,16.085880,-0.018996,-0.059941,0.442593,7.872000,35.003552

-1.589547,-1.806908,7.022856,16.088821,0.008982,-0.128689,0.413282,7.868000,35.003552

-3.814520,4.513548,9.884905,16.097647,-0.139704,0.190001,0.466042,7.872000,35.003552

-2.391879,2.355635,8.890971,16.100588,0.044688,-0.104707,0.282982,7.872000,35.003552

1.741925,1.816756,9.209509,16.082939,-0.104264,-0.195837,0.286446,7.868000,35.003552

-0.092660,1.538934,10.680051,16.074116,0.121696,0.069027,0.296838,7.868000,35.003552

-2.312843,2.283785,9.061018,16.100588,0.101711,0.087679,0.056755,7.872000,34.100114

-2.518815,0.568951,9.750783,16.097647,-0.047241,-0.007448,-0.030911,7.872000,34.100114

0.189952,1.146151,11.103970,16.103529,0.028168,-0.034361,-0.048231,7.876000,34.100114

2.024537,2.877750,9.827424,16.103529,0.129690,0.003210,-0.062354,7.876000,34.100114

0.649796,1.306617,10.998589,16.088821,-0.110126,0.052772,-0.041836,7.876000,34.100114

0.470170,0.758158,10.644126,16.103529,0.086523,0.127648,-0.107652,7.872000,34.100114

-0.459098,2.437066,8.905341,16.094706,0.034030,0.227838,-0.240084,7.872000,34.100114

-2.748737,-0.192665,8.893367,16.082939,-0.010203,0.144435,-0.650703,7.872000,34.100114

-0.169301,-0.633349,9.839399,16.088821,0.042557,0.008540,-0.764749,7.872000,34.100114

1.579064,1.783226,9.820239,16.091763,0.075331,-0.063672,-0.742899,7.872000,34.100114

1.420992,3.881263,6.649232,16.094706,0.029500,-0.081791,-0.603539,7.868000,34.100114

0.036671,0.655172,9.508886,16.082939,0.020174,-0.059941,-0.419413,7.876000,34.100114

-1.675768,3.299273,11.190190,16.085880,0.014844,-0.164661,-0.325885,7.872000,34.100114

-0.518973,3.311248,9.767549,16.082939,0.159800,-0.179050,-0.333079,7.876000,34.100114

-0.734525,0.952154,8.074269,16.091763,-0.062963,-0.214756,-0.318957,7.876000,34.100114

-0.530949,4.760235,9.472961,16.079998,0.149674,-0.181448,-0.276856,7.872000,34.073423

1.044974,2.477782,9.358000,16.091763,-0.014733,-0.233142,-0.187857,7.872000,34.073423

-1.328490,1.653895,8.026369,16.079998,-0.048307,-0.203831,-0.160945,7.876000,34.073423

0.362394,1.677845,9.362790,16.079998,0.000988,-0.207029,-0.000268,7.876000,34.073423

0.539625,0.439620,10.342353,16.059410,-0.029921,-0.113234,0.148152,7.872000,34.073423

0.261803,-0.398637,10.579460,16.082939,0.012713,-0.021304,0.242213,7.872000,34.073423

-1.560807,0.054022,8.979588,16.077057,-0.100534,-0.058875,0.205708,7.872000,34.073423

-2.897228,2.583162,9.231064,16.074116,-0.073888,-0.210226,0.128967,7.872000,34.073423

-2.310448,1.414393,10.699211,16.068233,0.147809,-0.178251,0.171068,7.872000,34.073423

-1.057853,2.101763,10.579460,16.091763,-0.034718,-0.311215,0.215300,7.872000,34.073423

1.243761,4.336317,5.897196,16.068233,0.149941,-0.226747,0.378109,7.872000,34.073423

0.381554,-0.745915,10.797407,16.074116,0.136618,-0.099378,0.601671,7.872000,34.073423

-2.925968,0.724627,9.801079,16.079998,0.026569,-0.095647,0.616326,7.876000,34.073423

-0.420778,1.907767,9.628637,16.065292,-0.004607,-0.065271,0.510807,7.876000,34.073423

-0.976422,0.688702,10.050160,16.074116,0.037494,-0.009047,0.310694,7.872000,34.073423

-2.102081,4.156691,8.785590,16.059410,0.006318,-0.041022,0.137760,7.872000,34.108324

0.817447,1.922137,9.973520,16.065292,0.004985,0.006674,0.167870,7.872000,34.108324

-1.084198,0.796478,10.201047,16.056469,-0.028056,0.089544,0.213702,7.876000,34.108324

-1.479376,2.767579,8.620334,16.056469,-0.070424,0.057835,0.164672,7.876000,34.108324

-1.496141,2.882540,9.319680,16.047646,-0.029388,0.042647,0.185989,7.876000,34.108324

-2.557135,1.210816,9.947175,16.065292,0.144612,0.078353,0.215567,7.876000,34.108324

-3.797755,1.287457,9.609477,16.059410,-0.054436,0.031189,0.096192,7.876000,34.108324

-0.617169,0.408485,9.496911,16.056469,-0.054169,-0.171056,0.135895,7.876000,34.108324

1.126405,-0.099259,10.500424,16.082939,-0.007272,-0.088719,0.205441,7.872000,34.108324

1.751505,2.255045,9.805869,16.059410,-0.031786,-0.041022,0.277919,7.876000,34.108324

-1.421896,1.531749,10.021420,16.079998,0.146477,0.142037,0.289377,7.876000,34.108324

-1.072223,-0.345946,8.555669,16.053528,-0.078684,0.062898,0.174265,7.872000,34.108324

-2.684071,1.335357,9.877720,16.062351,0.044688,0.227305,-0.026381,7.872000,34.108324

-2.664911,-0.717175,9.913645,16.050587,0.007384,0.107397,-0.170271,7.876000,34.108324

-1.088988,2.389166,10.368698,16.047646,-0.048041,0.167351,-0.161478,7.872000,34.108324

1.294056,2.434671,9.465776,16.044704,0.119564,0.066362,-0.179331,7.872000,33.777363

1.432967,1.912557,8.766430,16.044704,-0.023260,0.017066,-0.119643,7.872000,33.777363

0.194742,2.307735,9.221484,16.053528,-0.011002,0.122852,-0.011459,7.876000,33.777363

1.696420,3.833362,9.147239,16.041763,-0.042711,0.130313,-0.021318,7.876000,33.777363

-0.358507,3.471714,10.593830,16.062351,-0.125315,0.210785,-0.025049,7.872000,33.777363

0.534835,4.044125,10.076506,16.071175,0.032697,0.204390,-0.030911,7.880000,33.777363

0.422269,3.648946,9.178373,16.047646,0.003387,0.157759,-0.098859,7.880000,33.777363

1.373092,2.523287,10.021420,16.056469,-0.105064,0.117256,-0.153484,7.876000,33.777363

0.508490,1.388048,10.665681,16.056469,0.064939,0.133777,-0.188923,7.876000,33.777363

-0.430358,-1.244079,10.335168,16.053528,-0.134907,0.122053,-0.245147,7.880000,33.777363

-2.710416,1.007240,9.810658,16.041763,-0.075486,0.195596,-0.290712,7.876000,33.777363

-0.540529,0.453990,9.202324,16.047646,0.062275,0.316037,-0.252341,7.876000,33.777363

-1.546437,0.245623,11.044094,16.041763,-0.098669,0.027991,-0.362124,7.876000,33.777363

-0.334557,1.718560,9.820239,16.044704,-0.048041,-0.059408,-0.275790,7.876000,33.777363

1.313216,3.993829,8.946056,16.044704,0.180584,0.069559,0.267793,7.876000,33.777363

0.271383,2.295760,10.292058,16.041763,0.007650,-0.014376,0.185457,7.876000,33.777363

-1.316515,1.103040,10.004656,16.062351,0.072933,0.064230,0.156679,7.876000,33.777363

-1.278195,2.554422,7.080336,16.056469,-0.031254,0.090344,0.181460,7.876000,33.777363

-1.050668,2.923255,7.614426,16.047646,0.044688,0.054371,0.152415,7.876000,33.777363

-0.408803,2.319710,9.518467,16.047646,0.044155,0.047443,0.096725,7.876000,33.777363

-1.455426,4.870406,10.897998,16.047646,0.098780,0.073556,0.043166,7.880000,33.777363

-1.120123,3.119647,10.143566,16.041763,-0.037649,-0.133218,0.039702,7.880000,33.777363

-0.516578,3.869288,9.796288,16.053528,-0.112525,-0.032229,0.144155,7.880000,33.777363

-1.242269,3.148387,11.927856,16.044704,0.100379,-0.058342,0.204642,7.876000,33.777363

-2.456544,0.398905,10.682446,16.038822,0.149142,-0.096713,0.282182,7.880000,33.777363

-3.325936,0.832403,6.527087,16.032940,-0.049639,-0.220885,0.260599,7.876000,33.777363

-1.079408,0.123477,9.494516,16.041763,-0.099734,-0.177984,0.239815,7.880000,33.777363

-0.729735,1.332962,9.358000,16.053528,0.092119,-0.105773,0.164672,7.880000,33.777363

0.278568,-0.628559,10.445339,16.044704,-0.364065,-0.214490,0.243812,7.876000,33.777363

-0.842301,0.760553,11.927856,16.035881,0.163797,0.055970,0.147086,7.880000,33.777363

0.130077,3.004686,8.215575,16.041763,0.083059,-0.013310,-0.019986,7.876000,16.948419

1.387462,0.525841,8.613149,16.041763,-0.011802,-0.055678,-0.052228,7.876000,16.948419

-3.409762,2.187984,10.514794,16.053528,0.107573,0.050374,-0.105254,7.876000,16.948419

-1.405131,1.428763,8.167675,16.044704,-0.052571,-0.139614,-0.205977,7.876000,16.948419

1.808985,3.601046,6.445656,16.053528,-0.071223,-0.146009,-0.104988,7.876000,16.948419

1.085690,1.780831,10.045371,16.041763,0.004985,-0.068735,0.010924,7.872000,16.948419

1.459313,2.475386,10.507609,16.024117,0.047353,-0.079659,0.000798,7.876000,16.948419

0.577946,3.902818,8.467052,16.024117,0.072667,-0.011179,-0.009594,7.876000,16.948419

-0.425568,3.557935,7.679091,16.029999,-0.032852,0.020797,-0.014124,7.876000,16.948419

0.422269,5.270374,9.104128,16.032940,-0.093073,-0.064738,-0.058623,7.876000,16.948419

-0.317792,2.717283,11.958991,16.038822,0.012180,-0.053280,-0.117245,7.880000,16.948419

-1.273405,2.523287,9.087363,16.032940,-0.050705,-0.111102,-0.145756,7.876000,16.948419

0.436639,0.698282,8.349697,16.018234,-0.062963,-0.023702,-0.141226,7.880000,16.948419

1.095270,2.231094,9.365185,16.027058,-0.137039,0.027192,-0.039704,7.880000,16.948419

1.624569,-0.013039,12.751743,16.038822,-0.088276,0.022396,0.083668,7.880000,16.948419

0.652191,0.576136,9.492122,16.021175,0.144079,0.033321,0.201711,7.876000,33.680278

-0.722550,0.183353,8.028764,16.029999,-0.078950,-0.018107,0.109248,7.880000,33.680278

-3.318751,-0.451327,10.802197,16.024117,-0.129578,-0.080992,0.226492,7.876000,33.680278

-3.395392,1.914952,11.417717,16.035881,0.146477,0.006141,0.259533,7.880000,33.680278

-1.625473,2.446646,8.100615,16.038822,0.092652,-0.092716,0.308562,7.876000,33.680278

0.654586,1.622760,8.189230,16.024117,0.073200,-0.005316,0.560902,7.880000,33.680278

2.235299,1.605994,9.810658,16.032940,0.047086,0.115125,0.760483,7.876000,33.680278

-0.806376,3.481295,8.797565,16.044704,0.088388,0.196929,0.616326,7.880000,33.680278

-0.665070,1.677845,7.707831,16.032940,-0.049373,0.335489,0.455649,7.880000,33.680278

0.137262,4.767420,6.907895,16.032940,0.138217,0.388249,0.085800,7.876000,33.680278

0.472565,1.546119,8.325747,16.024117,-0.214313,0.449535,-0.010393,7.880000,33.680278

-0.150140,4.147110,10.859677,16.015293,0.032431,0.476981,-0.213438,7.884000,33.680278

-0.121400,1.699400,8.996352,16.029999,-0.159955,0.408500,-0.288580,7.880000,33.680278

-0.346532,3.028636,11.175820,16.029999,-0.037649,0.402904,-0.399695,7.880000,33.680278

-0.346532,0.880304,9.271779,16.012352,0.015910,0.349612,-0.434335,7.880000,33.680278

-0.432753,1.946087,9.856164,16.018234,-0.123183,0.283529,-0.473239,7.880000,33.680278

0.908458,1.742511,11.125525,16.018234,-0.039514,0.279265,-0.470574,7.880000,33.680278

1.274896,0.085157,12.061977,16.021175,-0.007005,0.270472,-0.375713,7.880000,33.680278

0.118102,0.796478,9.870534,16.012352,0.067871,0.458861,-0.410354,7.880000,33.680278

1.782640,4.753050,6.000182,16.021175,-0.005940,0.172947,-0.449257,7.884000,33.680278

1.507213,0.784503,8.914922,16.021175,-0.058699,0.084215,-0.440197,7.880000,33.680278

-1.601522,0.956944,11.276411,16.024117,0.056679,0.294187,-0.617661,7.876000,33.680278

-1.996701,2.652618,9.985496,16.029999,0.096382,0.091143,-0.785533,7.876000,33.680278

1.318007,-0.087284,9.935200,16.012352,-0.054702,-0.065803,-0.900378,7.876000,33.680278

1.717975,2.820269,8.979588,16.009411,0.164863,0.045045,-0.858010,7.880000,33.680278

0.982704,2.017938,5.918752,16.024117,0.108639,0.093541,-0.743165,7.876000,33.680278

0.254618,0.664752,11.082415,16.018234,-0.263875,-0.069267,-0.667223,7.876000,33.680278

-0.375272,4.547079,12.548166,16.012352,0.040425,0.075155,-0.613664,7.880000,33.680278

-1.534462,3.821388,9.779524,16.024117,0.159267,0.053305,-0.408222,7.880000,33.680278

-1.256639,4.846456,9.784313,16.000587,0.103843,-0.056211,-0.300571,7.880000,33.680278

-1.393156,3.555540,9.575947,16.006470,0.012180,-0.061274,-0.217968,7.880000,16.756860

-1.802704,4.230936,6.438471,16.021175,-0.020062,-0.006116,-0.237153,7.880000,16.756860

1.940712,-1.739848,14.418676,16.021175,-0.098136,-0.155868,-0.324020,7.880000,16.756860

-0.705785,2.489757,10.229787,15.991764,0.246134,-0.086588,-0.455119,7.884000,16.756860

-1.041088,-0.343551,7.813212,16.003529,-0.032852,-0.172921,-0.324819,7.884000,16.756860

-0.346532,0.317474,11.115945,16.027058,0.051883,-0.176119,-0.286182,7.880000,16.756860

-4.063602,0.755763,10.989009,16.009411,0.151273,-0.144143,-0.331214,7.876000,16.756860

-0.892597,3.371124,10.157937,16.021175,0.080394,-0.376765,-0.224096,7.880000,16.756860

0.446219,3.306458,9.748388,16.000587,0.219488,-0.405277,0.047163,7.876000,16.756860

1.219811,-1.088403,10.428574,16.006470,0.046287,-0.328269,0.352795,7.876000,16.756860

-1.424291,2.508917,10.474079,16.009411,0.238406,-0.139880,0.426872,7.880000,16.756860

-2.090106,3.227422,8.740085,16.012352,0.064939,-0.085522,0.236084,7.876000,16.756860

-1.673373,-3.413967,8.579618,16.006470,-0.083747,-0.137748,-0.033842,7.876000,16.756860

-1.474586,2.547237,11.484777,16.000587,-0.094672,0.012270,-0.112981,7.876000,16.756860

-0.097450,6.113421,6.946215,16.006470,-0.023260,-0.069800,-0.084736,7.876000,16.756860

1.849701,-0.183085,11.012959,15.991764,-0.072289,-0.032229,-0.043701,7.876000,16.756860

-1.524882,4.911121,11.635664,16.000587,-0.075753,0.077020,-0.087401,7.876000,32.834730

-2.861303,2.408326,8.773615,15.997646,-0.053370,0.001345,-0.067416,7.880000,32.834730

-1.876950,1.891002,9.118498,15.994705,-0.004074,-0.126557,0.018118,7.884000,32.834730

-2.183512,0.638407,10.622570,16.015293,-0.047508,-0.148940,0.073009,7.880000,32.834730

-1.251849,-1.464421,10.294453,15.991764,-0.200724,-0.200367,0.029043,7.880000,32.834730

0.477355,5.428446,9.892090,15.997646,0.161932,-0.071399,0.025046,7.880000,32.834730

0.762362,1.608389,9.022697,15.980000,0.051883,-0.181981,0.039435,7.880000,32.834730

-3.019374,-2.285912,11.918276,16.006470,-0.012335,0.008540,-0.167606,7.880000,32.834730

-1.105753,1.632339,9.702883,16.000587,-0.040846,0.025593,-0.354130,7.876000,32.834730

1.440153,0.293524,9.307705,15.994705,0.066272,-0.068735,-0.464712,7.876000,32.834730

-0.868646,0.492310,9.568762,16.006470,0.064939,-0.075929,-0.504415,7.872000,32.834730

0.482145,1.071905,9.923224,15.985882,0.024171,-0.183047,-0.499885,7.872000,32.834730

2.072438,1.294642,8.095824,15.991764,0.142746,-0.116964,-0.407422,7.872000,32.834730

1.569484,3.148387,9.183164,15.980000,0.054814,-0.050082,-0.336810,7.876000,32.834730

-1.431476,2.681358,8.730505,15.982941,0.033230,-0.058342,-0.327750,7.868000,32.834730

-3.067274,3.716007,9.276569,15.988823,0.173656,-0.154802,-0.385306,7.872000,32.834730

-0.756080,4.762630,8.989167,15.982941,0.081993,-0.235274,-0.363190,7.872000,32.834730

-0.835116,5.136253,9.243039,15.994705,0.129690,-0.180382,-0.245946,7.876000,32.834730

0.043856,4.994947,9.547207,15.991764,0.024171,-0.222750,-0.055426,7.880000,32.834730

0.173187,5.184154,9.511281,15.994705,0.046554,-0.230744,0.058087,7.880000,32.834730

0.613871,1.941297,9.899275,15.991764,0.044688,-0.285102,0.119107,7.880000,32.834730

0.920433,1.845496,9.520862,15.994705,0.022838,-0.229411,0.126568,7.880000,32.834730

0.051041,2.317315,9.178373,15.965292,0.024437,-0.150272,0.105518,7.880000,32.834730

-0.499813,-2.063175,9.906460,15.980000,-0.009670,-0.072731,0.020783,7.876000,32.834730

-1.177604,-0.116025,11.197375,15.985882,-0.026191,-0.068468,-0.031177,7.880000,32.834730

0.132472,1.203631,8.399992,15.965292,0.121163,0.073556,-0.067416,7.880000,32.834730

0.046251,2.403536,6.867179,15.977058,-0.075753,-0.098045,-0.118844,7.876000,32.834730

0.680931,0.556976,10.938713,15.985882,-0.050705,-0.076462,-0.107652,7.876000,32.834730

2.232904,1.752090,10.739926,15.968235,-0.038448,-0.073797,0.056489,7.872000,32.834730

2.527491,3.857313,8.857441,15.968235,0.069736,-0.026101,0.222228,7.872000,32.834730

-0.095055,2.108948,9.832214,15.991764,-0.083480,0.121786,0.243545,7.876000,32.834730

-2.904413,0.626431,9.355605,15.977058,0.023638,0.194264,0.122038,7.876000,32.834730

-1.888925,0.894674,8.742480,15.965292,-0.041113,0.026659,0.076740,7.872000,32.834730

-0.581244,1.574859,8.639494,15.968235,0.008183,0.069559,0.108182,7.876000,32.834730

-1.321305,1.320987,8.399992,15.980000,-0.004874,0.071691,0.094060,7.872000,32.834730

-1.912875,2.370006,10.354328,15.977058,-0.045643,0.076754,0.071411,7.876000,32.834730

-1.848209,1.867052,11.415322,15.968235,-0.065894,0.084215,0.013322,7.872000,32.834730

-0.042365,2.252650,9.405901,15.974117,-0.015799,0.054904,0.024780,7.876000,32.834730

-0.468678,3.095696,7.573710,15.965292,-0.014733,0.075422,0.031974,7.872000,32.834730

-2.607430,2.073023,8.572433,15.971176,-0.087477,0.013602,0.067147,7.872000,32.834730

-2.964288,0.267179,10.217813,15.968235,-0.088010,-0.012777,0.054623,7.872000,32.834730

-1.316515,1.069510,10.567485,15.959410,-0.022727,-0.133485,-0.007995,7.872000,32.834730

-0.068710,2.652618,9.190349,15.977058,0.077996,-0.077528,-0.040770,7.876000,32.834730

1.847306,0.556976,9.348420,15.988823,-0.025658,-0.030364,-0.085003,7.872000,32.834730

-0.655490,-0.058544,9.707673,15.985882,-0.070956,0.125783,-0.183594,7.872000,32.834730

-1.733248,0.806058,9.904064,15.965292,-0.047241,-0.015975,-0.340274,7.876000,32.834730

-0.703390,0.762947,10.682446,15.974117,-0.090142,0.097005,-0.503082,7.868000,32.834730

1.610199,1.778436,8.246711,15.968235,0.031898,0.004276,-0.620859,7.872000,10.662878

-1.184789,1.711375,9.719648,15.968235,0.020707,0.078086,-0.764482,7.872000,10.662878

-0.578849,0.748577,10.797407,15.971176,0.004186,-0.160931,-0.738102,7.868000,10.662878

0.324073,0.992869,8.402388,15.965292,-0.034185,-0.067669,-0.522001,7.872000,10.662878

1.579064,1.416788,8.605964,15.968235,0.094783,-0.197969,-0.249144,7.868000,10.662878

-1.723668,-0.139975,9.568762,15.968235,0.023105,-0.167859,-0.055159,7.864000,10.662878

-1.769174,1.888607,9.755573,15.968235,0.060676,-0.224349,-0.004531,7.872000,10.662878

-2.355953,2.820269,10.141171,15.959410,0.140348,-0.208094,-0.000801,7.864000,10.662878

-0.959657,3.043006,8.684999,15.956469,0.038027,-0.252327,0.065815,7.872000,10.662878

0.355209,2.080208,10.007051,15.959410,-0.013134,-0.182248,0.148418,7.868000,10.662878

-0.387247,3.009476,10.028605,15.965292,0.060676,-0.095914,0.167337,7.868000,10.662878

0.350419,1.198841,9.798684,15.968235,0.021240,-0.164128,0.163074,7.868000,10.662878

-1.390761,1.680240,9.542417,15.950586,0.002854,-0.109237,0.197181,7.868000,10.662878

-1.242269,-0.939911,10.136381,15.956469,-0.072289,-0.029032,0.102587,7.864000,10.662878

-2.252968,1.002450,6.285190,15.950586,0.043622,-0.079659,-0.076743,7.860000,10.662878

0.084571,0.899464,9.587922,15.953527,-0.158623,-0.341059,-0.073279,7.860000,10.662878

0.498910,1.246742,10.354328,15.968235,0.135286,-0.076462,-0.152951,7.864000,10.662878

-0.274681,-0.755495,9.537626,15.962351,-0.025924,-0.025301,0.159610,7.860000,30.077349

-0.959657,2.628668,9.525652,15.953527,0.157135,-0.063405,0.345601,7.860000,30.077349

0.070201,1.325777,8.464658,15.959410,0.036961,0.060766,0.345334,7.860000,30.077349

-0.447123,1.083880,9.803473,15.980000,0.090253,0.015468,0.239016,7.860000,30.077349

-2.468519,1.562884,7.391689,15.962351,0.016710,0.000812,0.056489,7.860000,30.077349

-1.493746,1.651500,8.970007,15.953527,-0.079750,0.001079,-0.015989,7.856000,30.077349

-0.272286,1.277877,10.771062,15.959410,0.048419,-0.037825,-0.008795,7.864000,30.077349

-0.708180,2.312525,7.027646,15.938822,0.079595,0.027192,0.114578,7.860000,30.077349

-1.254244,4.080050,10.007051,15.953527,-0.202322,-0.013577,0.163607,7.856000,30.077349

-0.689020,4.343502,8.632309,15.950586,0.030566,0.064230,0.208106,7.856000,30.077349

-1.515302,1.064720,13.625925,15.962351,-0.195394,-0.086588,0.223028,7.856000,30.077349

-2.542765,6.848692,10.076506,15.947645,0.237074,0.138040,0.367717,7.860000,30.077349

-2.099686,-0.415402,8.586803,15.935881,-0.112525,-0.147075,0.485493,7.860000,30.077349

-3.143915,4.899147,7.928173,15.944704,0.002854,-0.038358,0.575025,7.864000,30.077349

-1.967960,-1.105168,11.240485,15.953527,-0.024059,0.021330,0.578755,7.864000,30.077349

-3.555858,0.978499,10.818962,15.944704,0.130223,0.067694,0.444458,7.860000,30.077349

-1.709298,0.442015,10.167517,15.944704,-0.110659,-0.012511,0.321619,7.860000,30.077349

-0.140560,1.802386,11.362632,15.944704,-0.017664,0.061566,0.094060,7.860000,30.077349

3.442389,2.635853,8.701765,15.959410,0.169393,0.181474,-0.104721,7.860000,30.077349

3.332218,2.171219,8.912526,15.932940,0.137950,0.053572,-0.103922,7.856000,30.077349

1.243761,1.804781,9.197534,15.944704,0.148609,0.134576,-0.145490,7.852000,30.077349

0.264198,0.556976,8.680209,15.932940,0.093451,0.084215,-0.155615,7.852000,30.077349

0.894088,1.397628,9.154424,15.932940,-0.009137,0.074356,-0.081272,7.852000,30.077349

1.203046,2.360425,8.285031,15.932940,-0.005673,0.162022,-0.049563,7.848000,30.077349

-0.746500,2.566397,8.603569,15.929998,0.020440,0.160956,-0.005331,7.852000,30.077349

-2.003886,3.965089,9.992681,15.924116,-0.010469,0.052239,-0.057291,7.844000,30.077349

-1.266220,5.519456,9.872930,15.906469,0.023371,0.106864,-0.138828,7.852000,30.077349

0.925223,4.836876,8.665839,15.924116,0.033230,0.101002,-0.147888,7.852000,30.077349

0.839003,4.178246,8.687394,15.900587,-0.148497,0.148432,-0.175067,7.848000,30.077349

0.975519,5.809254,10.083691,15.921175,-0.025658,0.210518,-0.246213,7.852000,30.077349

0.855768,3.459739,8.979588,15.932940,-0.057367,0.154295,-0.345337,7.856000,30.077349

2.235299,4.956627,7.683881,15.927057,0.052149,0.166552,-0.401294,7.864000,30.077349

2.436481,1.902977,8.452682,15.921175,-0.170613,0.168950,-0.355196,7.856000,30.077349

0.127682,-0.863271,12.124248,15.927057,0.042557,0.255817,-0.306700,7.860000,30.077349

-0.023204,0.233648,9.597502,15.915293,-0.054169,0.168950,-0.301104,7.856000,30.077349

0.520465,0.049232,9.221484,15.932940,-0.019796,0.160157,-0.350133,7.856000,30.077349

-0.083080,-0.872851,10.445339,15.912352,0.095583,-0.172122,-0.340007,7.856000,30.077349

-2.561925,1.582044,9.389135,15.932940,0.100379,0.046910,-0.458050,7.852000,14.563371

0.704881,0.003726,7.753336,15.906469,0.114235,-0.165460,-0.308831,7.852000,14.563371

0.707277,1.500613,10.277688,15.932940,-0.002209,0.095673,-0.031177,7.844000,14.563371

-2.178722,1.512589,8.493398,15.915293,0.038826,0.128981,-0.033576,7.848000,14.563371

-2.240993,2.757999,9.410690,15.915293,0.049218,-0.026101,-0.113514,7.844000,14.563371

-0.784821,2.583162,8.514953,15.912352,0.117166,-0.006649,-0.155615,7.852000,14.563371

-0.892597,3.189102,9.360395,15.906469,0.035362,-0.077794,-0.203845,7.844000,14.563371

-0.734525,4.573424,10.342353,15.906469,0.067604,-0.087920,-0.156681,7.852000,14.563371

-0.313002,6.055941,6.917475,15.903528,0.101178,-0.027433,-0.058890,7.852000,14.563371

-0.521369,3.069351,7.492280,15.912352,-0.071223,-0.147341,0.092195,7.852000,14.563371

-1.124913,2.683753,10.016630,15.900587,-0.024326,-0.100976,0.111380,7.856000,14.563371

-1.867369,3.986644,9.925620,15.903528,0.120630,-0.196903,0.050627,7.852000,14.563371

-2.684071,2.494547,7.379714,15.918234,-0.004607,-0.193705,0.034905,7.856000,14.563371

-2.672096,0.549791,8.244316,15.894705,0.048152,-0.193439,-0.026381,7.856000,14.563371

-1.821864,-0.135185,10.751902,15.906469,0.018308,-0.241935,0.011989,7.852000,14.563371

0.197137,0.018096,8.507768,15.897646,0.093451,-0.358646,0.108182,7.852000,14.563371

-1.239874,1.550909,9.729228,15.900587,0.074532,-0.237672,0.152149,7.848000,14.563371

-1.814679,0.183353,10.658496,15.903528,0.008449,-0.199301,0.147885,7.852000,28.429130

-0.171696,-0.099259,9.319680,15.903528,0.014578,-0.201966,0.040501,7.848000,28.429130

-0.514183,1.261111,8.297007,15.944704,0.106774,-0.146009,0.007993,7.840000,28.429130

-1.785939,1.062325,10.725556,15.906469,0.027368,-0.296293,-0.184926,7.840000,28.429130

0.774337,2.005963,8.543694,15.909410,0.034296,-0.263519,-0.133765,7.836000,28.429130

2.843634,1.711375,6.838439,15.891764,0.008982,-0.251261,0.029576,7.840000,28.429130

1.344352,2.894515,8.790380,15.897646,0.022838,-0.094315,0.333077,7.836000,28.429130

-1.218319,4.683595,7.674301,15.891764,0.016443,-0.130554,0.577423,7.836000,28.429130

-2.334398,0.652777,11.776970,15.918234,-0.086411,-0.112701,0.753288,7.832000,28.429130

-2.046996,4.432117,10.538745,15.932940,0.174722,-0.061274,0.783931,7.840000,28.429130

-3.797755,5.200919,4.555985,15.900587,0.040158,-0.118030,0.678679,7.840000,28.429130

-2.423014,1.986803,11.276411,15.912352,-0.126914,-0.166526,0.488957,7.836000,28.429130

1.706000,2.827454,10.924343,15.909410,0.068936,-0.073531,0.339472,7.836000,28.429130

2.589762,2.884935,7.592870,15.912352,0.144878,0.107664,0.266728,7.848000,28.429130

4.347706,3.361544,5.842111,15.915293,-0.206319,0.118322,0.134829,7.844000,28.429130

2.371815,2.607113,9.607082,15.906469,0.022039,0.360270,0.011989,7.844000,28.429130

1.078505,2.039493,10.617781,15.874117,-0.199924,0.272337,-0.270461,7.844000,28.429130

2.755018,2.896910,8.316167,15.891764,-0.005407,0.376258,-0.422611,7.840000,28.429130

0.743202,2.274205,7.839557,15.900587,0.020440,0.386650,-0.568632,7.840000,28.429130

1.488053,3.596256,10.155541,15.906469,-0.151162,0.229171,-0.563569,7.836000,28.429130

1.670074,-1.222524,10.244158,15.915293,-0.065361,0.174013,-0.371716,7.840000,28.429130

-0.916547,-3.888180,9.487331,15.888823,0.159800,0.188135,-0.249677,7.832000,28.429130

-0.473468,0.818033,10.229787,15.897646,-0.062430,0.257149,-0.187591,7.832000,28.429130

-1.050668,1.953272,9.336445,15.906469,-0.058699,0.183073,0.010124,7.832000,28.429130

0.434244,1.098250,9.607082,15.894705,-0.074420,0.140439,0.118042,7.828000,28.429130

2.925065,-0.154345,9.389135,15.891764,-0.098402,0.136442,0.014921,7.824000,28.429130

2.146683,1.807176,9.904064,15.903528,0.072933,0.373860,-0.118577,7.828000,28.429130

-0.016019,2.271810,8.265871,15.897646,0.083858,0.393311,-0.248344,7.820000,28.429130

0.168397,2.645433,6.321115,15.894705,-0.138105,0.370129,-0.365588,7.816000,28.429130

-0.174091,-0.228591,10.620175,15.891764,-0.233232,0.359471,-0.386372,7.812000,28.429130

0.228273,1.340147,10.227392,15.891764,-0.018463,0.474316,-0.421545,7.820000,28.429130

-0.744105,4.556659,9.698093,15.900587,0.007384,0.396242,-0.449257,7.812000,28.429130

-3.175050,0.657567,8.227551,15.879999,0.022838,0.115125,-0.227560,7.816000,28.429130

-4.729418,3.201077,6.857599,15.877058,0.114768,-0.070067,-0.193453,7.824000,28.429130

-7.349569,4.374637,8.711345,15.879999,-0.134907,-0.002652,-0.012525,7.820000,28.429130

-6.961576,1.495824,12.373330,15.885881,-0.110659,-0.154802,-0.039704,7.828000,28.429130

-6.144874,2.523287,7.700646,15.885881,0.015644,-0.251261,-0.000801,7.836000,28.429130

-6.302946,2.920860,11.060859,15.882940,-0.152494,-0.434055,0.027711,7.832000,28.429130

-3.383417,0.473150,10.627360,15.894705,0.033230,-0.536376,-0.115646,7.828000,13.279688

-1.560807,1.591624,9.745994,15.885881,0.055080,-0.532113,-0.061288,7.836000,13.279688

-0.703390,-0.307626,10.660891,15.879999,0.004452,-0.608854,0.166005,7.824000,13.279688

0.633031,0.667147,8.567643,15.903528,0.121163,-0.607255,0.262198,7.820000,13.279688

1.143170,0.022887,8.371252,15.885881,0.061475,-0.598462,0.371181,7.824000,13.279688

2.580182,1.476663,9.037067,15.874117,0.112636,-0.325604,0.573160,7.820000,13.279688

-1.378785,0.803663,9.190349,15.885881,0.094783,-0.353050,0.692268,7.812000,13.279688

-3.199000,3.272928,9.511281,15.888823,0.212826,-0.169457,0.573426,7.820000,13.279688

-2.628986,2.798714,9.963940,15.888823,-0.037649,-0.208094,0.379175,7.816000,13.279688

0.434244,0.439620,8.548483,15.894705,-0.055235,-0.259255,0.327481,7.812000,13.279688

-0.849486,3.517220,8.234735,15.868235,0.106508,-0.036226,0.273656,7.812000,13.279688

0.106127,2.125714,9.259805,15.885881,-0.014200,-0.129754,0.170268,7.816000,13.279688

0.302518,2.101763,9.425060,15.879999,0.015644,-0.095647,0.173999,7.812000,13.279688

0.491725,3.469320,9.719648,15.879999,0.009515,-0.157999,0.180927,7.808000,13.279688

0.743202,3.720797,8.716135,15.879999,0.073200,-0.031696,0.114844,7.816000,13.279688

0.973124,3.881263,7.228827,15.856470,0.076930,-0.009047,0.018118,7.820000,13.279688

0.067806,3.864498,10.014235,15.885881,-0.010736,-0.007448,-0.060222,7.816000,13.279688

2.561022,3.979459,9.559182,15.874117,0.003387,0.054904,-0.175334,7.820000,13.279688

3.205282,5.100328,9.056228,15.888823,0.036161,0.138573,-0.198782,7.820000,13.279688

4.927301,6.652301,10.332773,15.879999,-0.030188,0.168151,-0.126038,7.824000,13.279688

5.011127,3.502850,11.717094,15.885881,-0.001943,0.345082,0.023714,7.824000,13.279688

3.904628,2.573582,9.044252,15.894705,-0.011002,0.508423,0.176397,7.824000,13.279688

2.908299,2.197564,7.909013,15.885881,0.010315,0.497498,0.233686,7.820000,13.279688

0.326468,1.613179,9.995075,15.882940,-0.291587,0.541731,0.132963,7.824000,13.279688

2.479591,-1.212944,9.757969,15.871176,-0.182071,0.571042,-0.139095,7.820000,13.279688

-2.240993,-0.513598,9.875324,15.897646,0.005785,0.769290,-0.425009,7.816000,13.279688

-3.009794,0.971314,8.491003,15.871176,-0.096270,0.657909,-0.516672,7.812000,13.279688

-1.955985,0.858748,8.098220,15.865294,-0.051771,0.516950,-0.602473,7.820000,13.279688

0.063016,0.736602,10.148356,15.891764,-0.188733,0.339752,-0.715453,7.816000,13.279688

0.166002,0.693492,9.175979,15.885881,-0.005407,0.395976,-0.733040,7.816000,13.279688

0.949174,1.989197,8.536509,15.868235,-0.035250,0.362402,-0.671753,7.804000,13.279688

0.510885,2.298155,9.116103,15.847647,-0.099201,0.331492,-0.576626,7.804000,13.279688

1.916761,0.976104,9.829819,15.882940,-0.068025,0.176677,-0.569432,7.800000,13.279688

2.273619,0.777318,9.841794,15.856470,0.089720,0.275801,-0.641909,7.796000,13.279688

2.537071,2.278995,9.075388,15.865294,0.035895,0.240628,-0.614464,7.796000,13.279688

-0.004044,3.112462,8.474237,15.862352,0.070802,0.376524,-0.582222,7.800000,13.279688

-1.862579,2.856194,7.837162,15.859411,0.077996,0.294987,-0.671487,7.796000,13.279688

-4.403695,2.331685,8.871811,15.874117,0.022305,0.288858,-0.778338,7.796000,13.279688

-4.279154,1.438343,7.741362,15.868235,0.108373,-0.066603,-1.043468,7.804000,13.279688

-7.636971,0.501890,9.360395,15.877058,0.112103,-0.234208,-1.077309,7.808000,13.279688

-6.769974,3.351964,11.626083,15.874117,0.083592,-0.274177,-1.013092,7.812000,13.279688

-6.985526,1.309012,9.944780,15.859411,0.351920,-0.706646,-0.686675,7.812000,12.611441

-6.535263,-0.274096,7.810817,15.871176,0.343393,-1.091950,-0.412219,7.816000,12.611441

-4.432436,-0.669274,9.427456,15.865294,0.131289,-1.045320,-0.102323,7.816000,12.611441

-0.600404,0.118687,10.620175,15.877058,0.160599,-0.846805,0.205441,7.812000,12.611441

1.150355,0.533026,8.878996,15.862352,0.006584,-1.104208,0.653098,7.804000,12.611441

4.350101,-0.616584,10.268107,15.850588,0.100645,-0.795378,0.828164,7.800000,12.611441

5.042262,0.935389,9.547207,15.871176,0.312217,-0.560624,0.844418,7.792000,12.611441

0.271383,-0.796210,11.343472,15.853529,0.107040,-0.472425,0.864403,7.788000,12.611441

-2.070946,0.885094,9.037067,15.862352,0.208563,-0.387157,0.887319,7.788000,12.611441

-3.692374,2.899305,6.778563,15.844706,0.230413,-0.289632,0.678412,7.788000,12.611441

-3.848051,1.888607,9.537626,15.850588,-0.047241,-0.400214,0.461245,7.784000,12.611441

-0.250731,2.008358,10.354328,15.853529,0.210428,-0.383693,0.443659,7.780000,12.611441

1.892811,5.435631,8.210786,15.859411,0.133687,-0.300290,0.399159,7.792000,12.611441

0.656981,3.859708,7.726991,15.862352,0.021772,-0.260321,0.327747,7.792000,12.611441

0.474960,3.411839,9.719648,15.850588,0.047353,-0.196903,0.208106,7.784000,12.611441

-0.744105,2.583162,10.378279,15.838821,-0.001410,-0.175320,0.080204,7.784000,12.611441

-1.306935,3.847733,7.652746,15.832939,0.068936,-0.237139,-0.017321,7.796000,12.611441

-1.249454,6.288258,8.780800,15.865294,0.085990,-0.209427,-0.041569,7.796000,12.611441

0.870138,3.117252,10.521979,15.838821,-0.033119,-0.171323,0.008792,7.800000,12.611441

2.321520,4.594979,9.168794,15.856470,0.265852,-0.185445,0.125769,7.800000,12.611441

2.769388,7.806700,6.673183,15.838821,0.096116,-0.238205,0.251539,7.804000,12.611441

2.093993,4.115975,8.316167,15.844706,-0.023793,-0.232342,0.369049,7.800000,12.611441

2.802919,1.282667,9.003537,15.832939,0.083059,-0.083656,0.435398,7.812000,12.611441

3.217257,2.001173,8.958032,15.847647,0.131555,-0.001320,0.430336,7.812000,12.611441

5.571561,1.292247,10.349538,15.868235,-0.091474,0.225440,0.544648,7.804000,12.611441

3.456759,-0.683644,10.603411,15.862352,-0.094405,0.407967,0.631248,7.808000,12.611441

2.472406,2.425091,10.129196,15.850588,0.127292,0.584099,0.579288,7.808000,12.611441

2.702328,2.358031,10.440549,15.865294,-0.011802,0.528141,0.422608,7.808000,12.611441

2.774179,-2.214062,9.590317,15.841763,0.103044,0.544396,0.393297,7.800000,12.611441

-0.990792,1.263507,8.050320,15.850588,0.194973,0.517749,0.312293,7.804000,12.611441

-3.517538,1.131781,9.094548,15.847647,0.024704,0.446337,0.030642,7.800000,12.611441

-2.890043,-1.308744,9.951965,15.832939,-0.003009,0.331759,-0.145756,7.788000,12.611441

-0.130980,1.299432,9.669353,15.850588,0.039892,0.257149,-0.268063,7.792000,12.611441

-0.202831,0.717442,8.067084,15.844706,0.060676,0.265143,-0.170537,7.788000,12.611441

-0.514183,2.971155,9.070598,15.841763,0.072400,0.284861,0.011457,7.780000,12.611441

1.080899,1.318592,8.541298,15.838821,-0.157024,0.145501,0.327481,7.776000,12.611441

2.256854,-0.046569,9.951965,15.850588,-0.110926,0.395710,0.447656,7.784000,12.611441

1.523978,4.638089,7.650351,15.856470,0.152339,0.508423,0.450320,7.776000,12.611441

-0.576454,3.227422,8.064690,15.841763,-0.132509,0.441275,0.329080,7.776000,12.611441

-1.179999,3.246583,11.168635,15.841763,-0.211915,0.519615,-0.059422,7.784000,12.611441

0.659376,5.054823,9.844189,15.868235,-0.100001,0.581168,-0.401827,7.780000,12.611441

0.451009,6.043966,8.117380,15.865294,0.085457,0.503094,-0.622458,7.784000,12.611441

-1.105753,4.135135,9.326865,15.847647,0.004719,0.296319,-0.796991,7.792000,12.611441

-5.335358,1.907767,9.700488,15.841763,-0.244157,0.296053,-0.886256,7.788000,12.611441

-3.965406,3.277718,9.051437,15.844706,-0.177009,0.089278,-0.905174,7.796000,11.957583

-3.725904,3.943534,9.853769,15.844706,0.043889,-0.092450,-0.827900,7.796000,11.957583

-6.096974,2.070628,8.931686,15.841763,-0.007538,-0.206762,-0.795392,7.796000,11.957583

-0.952472,1.289852,10.169911,15.844706,0.192042,-0.614183,-0.545983,7.796000,11.957583

1.193465,-0.640534,12.313455,15.844706,-0.172745,-0.717304,-0.161478,7.792000,11.957583

2.570602,-3.054714,11.755415,15.850588,0.055347,-0.295761,0.038369,7.792000,11.957583

2.204164,1.970037,6.555827,15.868235,0.250930,-0.320275,0.152948,7.788000,11.957583

2.850819,3.634576,6.505531,15.853529,0.023638,-0.310150,0.334143,7.780000,11.957583

-1.692533,-1.181808,11.853611,15.841763,-0.082148,-0.232875,0.411417,7.772000,11.957583

-1.632658,0.798873,9.144843,15.853529,0.162465,-0.236872,0.297904,7.772000,11.957583

-0.404013,2.104158,9.839399,15.847647,0.210694,-0.036226,0.152415,7.772000,11.957583

-2.360744,3.797437,10.502819,15.856470,-0.107728,-0.152670,0.160676,7.768000,11.957583

-1.776359,-0.494438,12.902629,15.827057,0.073733,-0.111369,0.072743,7.772000,11.957583

-2.753527,0.561766,7.080336,15.853529,0.193907,-0.159598,-0.128436,7.772000,11.957583

-3.007399,4.295601,7.389294,15.841763,0.029766,-0.096980,-0.272060,7.772000,11.957583

-2.921178,1.759276,10.859677,15.847647,0.059877,-0.203298,-0.323753,7.768000,11.957583

-1.721273,2.283785,8.704160,15.853529,0.072400,-0.175852,-0.355462,7.772000,11.957583

-1.287775,6.137372,6.419311,15.841763,0.202434,-0.224615,-0.216369,7.776000,11.957583

-0.375272,3.526800,9.247829,15.844706,0.007650,-0.450309,-0.027447,7.772000,11.957583

-0.035179,-0.554313,9.207114,15.835880,-0.288390,-0.269114,0.199313,7.772000,11.957583

-2.149982,7.131305,8.203601,15.856470,0.255993,-0.029565,0.222228,7.784000,11.957583

2.014957,5.153018,7.226432,15.832939,-0.272669,-0.250195,0.156679,7.788000,11.957583

1.899996,6.374478,10.996194,15.821175,0.071867,0.033587,0.168137,7.792000,11.957583

1.703605,2.025123,9.041858,15.838821,0.056679,-0.073797,0.117242,7.792000,11.957583

3.147801,5.564962,8.735295,15.835880,-0.060298,0.015734,0.093527,7.792000,11.957583

3.030446,0.791688,8.912526,15.838821,-0.258013,0.193997,0.221695,7.792000,11.957583

2.949015,0.259993,11.738649,15.832939,-0.084013,0.242760,0.466042,7.792000,11.957583

1.876046,4.139925,10.850098,15.838821,0.014578,0.482843,0.710388,7.792000,11.957583

0.587526,-2.367343,13.027170,15.832939,-0.416825,0.406368,0.760216,7.796000,11.957583

0.110917,0.422855,8.170071,15.841763,-0.009670,0.500429,0.544648,7.796000,11.957583

-3.486403,2.264625,12.663127,15.838821,0.026036,0.560117,0.362921,7.784000,11.957583

-3.603759,-0.113630,10.821357,15.847647,-0.017131,0.480978,-0.026381,7.784000,11.957583

-3.000214,-0.571078,7.104286,15.832939,-0.000077,0.417293,-0.339475,7.780000,11.957583

-2.056576,2.271810,8.725715,15.844706,-0.009404,0.363468,-0.547582,7.780000,11.957583

-0.950077,1.989197,9.302915,15.841763,-0.143701,0.280065,-0.727977,7.776000,11.957583

-0.152535,2.214329,10.577065,15.844706,-0.067492,0.233700,-0.853481,7.772000,11.957583

0.764757,4.705150,9.532837,15.829998,0.253861,0.082083,-0.791661,7.780000,11.957583

1.456918,3.488480,7.532995,15.835880,-0.065361,-0.071666,-0.541720,7.772000,11.957583

1.914366,0.877909,8.850256,15.838821,-0.132776,0.086080,-0.233422,7.776000,11.957583

0.908458,3.780672,10.545930,15.844706,0.160866,0.252886,0.075408,7.772000,11.957583

1.552718,6.482255,9.741203,15.835880,-0.005407,0.248622,0.581953,7.776000,11.957583

1.126405,2.724468,7.791657,15.832939,0.027901,0.290457,0.780734,7.776000,11.957583

-0.562084,2.940020,6.996511,15.832939,0.110771,0.357073,0.575291,7.784000,11.957583

-4.042047,4.309972,8.124565,15.844706,-0.094672,0.553189,0.259000,7.784000,11.957583

-6.108949,3.316038,9.463381,15.844706,-0.161554,0.480445,-0.200381,7.784000,11.828084

-6.901700,2.228699,10.778247,15.815292,-0.114656,0.352543,-0.609934,7.792000,11.828084

-8.161481,2.451436,10.071716,15.824116,0.052416,0.167618,-0.908905,7.788000,11.828084

-6.346056,0.949759,9.535232,15.818233,-0.081881,-0.149206,-1.047732,7.792000,11.828084

-3.507958,1.083880,10.224998,15.832939,-0.087211,-0.325871,-1.046133,7.792000,11.828084

0.096547,0.042047,8.658654,15.821175,0.063874,-0.328003,-0.901710,7.796000,11.828084

2.268829,0.549791,11.022539,15.841763,0.112636,-0.420199,-0.397297,7.788000,11.828084

-0.382457,-2.288307,9.992681,15.835880,0.011647,-0.332532,-0.236886,7.788000,11.828084

2.129918,-0.544733,8.177256,15.835880,0.090520,-0.211558,-0.351465,7.780000,11.828084

0.268988,0.315079,10.574670,15.841763,0.109172,-0.047950,-0.202513,7.776000,11.828084

-3.184630,-1.684762,10.023815,15.847647,-0.001410,-0.032762,-0.086335,7.768000,11.828084

-3.804940,1.117410,9.108918,15.844706,0.175521,-0.060208,-0.341873,7.772000,11.828084

-2.183512,2.997501,7.501860,15.844706,0.186180,-0.180915,-0.430871,7.764000,11.828084

-2.696046,0.434830,8.852651,15.853529,-0.018463,-0.310416,-0.398363,7.760000,11.828084

-3.014584,2.702913,9.585527,15.862352,0.155004,-0.353316,-0.357061,7.768000,11.828084

-1.096173,3.090906,8.301796,15.850588,0.059610,-0.427127,-0.265931,7.764000,11.828084

-0.516578,1.258717,8.091035,15.832939,0.135552,-0.519323,-0.212638,7.768000,11.828084

-1.999095,2.554422,8.984377,15.838821,0.103843,-0.382361,-0.189989,7.764000,11.828084

-1.745224,3.866893,8.011999,15.838821,-0.105863,-0.358912,-0.248877,7.768000,11.828084

-0.614774,5.141044,9.037067,15.850588,0.064140,-0.287234,-0.350666,7.772000,11.828084

-1.177604,5.440421,8.677814,15.859411,0.125160,-0.332266,-0.473772,7.776000,11.828084

-2.322423,4.456068,7.226432,15.841763,0.184848,-0.460967,-0.450323,7.780000,11.828084

-2.628986,4.487203,7.736571,15.850588,0.032697,-0.527316,-0.227560,7.780000,23.725366

0.113312,4.420143,8.919712,15.868235,-0.128512,-0.572349,0.088464,7.788000,23.725366

2.316730,4.697965,10.713581,15.847647,-0.050439,-0.390888,0.432467,7.788000,23.725366

3.935763,4.259676,10.042975,15.859411,0.039892,-0.253393,0.614728,7.796000,23.725366

4.613554,3.589071,10.747111,15.865294,-0.014733,-0.032496,0.801518,7.792000,23.725366

5.602696,1.512589,9.801079,15.865294,-0.107195,0.150298,0.766611,7.796000,23.725366

2.024537,2.123319,9.743598,15.853529,-0.053903,0.357339,0.604869,7.796000,23.725366

-0.107030,-1.066847,9.607082,15.850588,0.022572,0.423422,0.254470,7.788000,23.725366

-2.396669,-0.542338,8.026369,15.850588,0.020707,0.437544,-0.065818,7.784000,23.725366

-2.866093,0.573741,9.837004,15.850588,0.008716,0.220910,-0.246213,7.780000,23.725366

-2.054181,-0.432167,11.314732,15.856470,-0.036849,0.146034,-0.454053,7.780000,23.725366

-2.439779,-0.044174,9.444221,15.853529,0.026569,0.109529,-0.521202,7.772000,23.725366

-1.694928,2.123319,9.434641,15.832939,0.001521,-0.011712,-0.549447,7.776000,23.725366

0.053436,2.772369,8.807145,15.841763,0.088122,0.019731,-0.429272,7.776000,23.725366

0.779127,4.978182,7.669511,15.859411,0.020174,-0.032229,-0.072746,7.776000,23.725366

1.341957,1.670660,9.034673,15.850588,-0.031786,-0.028232,0.223028,7.776000,23.725366

1.365907,2.592742,10.126801,15.844706,0.038293,0.070892,0.455383,7.772000,23.725366

-0.128585,2.772369,9.168794,15.832939,-0.084812,0.114858,0.736501,7.784000,23.725366

0.022301,4.647669,8.201205,15.838821,-0.032852,0.221710,0.963794,7.780000,23.725366

-1.021928,4.484808,10.304033,15.838821,-0.072022,0.361069,0.936614,7.784000,23.725366

-1.213529,3.596256,9.413086,15.821175,0.099047,0.362935,0.739166,7.788000,24.828152

-1.352440,4.997342,7.358159,15.832939,0.023105,0.338687,0.408752,7.788000,24.828152

-3.883976,2.829849,9.266990,15.853529,-0.132509,0.333091,0.144688,7.792000,24.828152

-5.155731,1.907767,10.287268,15.856470,-0.064828,0.364267,-0.114047,7.788000,24.828152

-6.772369,3.026241,9.013118,15.832939,-0.081615,0.195863,-0.443128,7.796000,24.828152

-7.421420,1.792806,10.409413,15.856470,-0.155692,0.145501,-0.516139,7.796000,24.828152

-5.285062,0.080367,10.579460,15.850588,0.044155,-0.134551,-0.605671,7.796000,24.828152

-2.540370,1.814361,9.413086,15.850588,0.116900,-0.300557,-0.583288,7.796000,24.828152

-1.656608,0.236043,9.547207,15.832939,0.005252,-0.389822,-0.518004,7.792000,24.828152

-1.077013,-0.166320,10.598620,15.856470,-0.107728,-0.580076,-0.318158,7.788000,24.828152

3.123851,-0.468093,8.577224,15.841763,0.115567,-0.459635,-0.171603,7.788000,24.828152

3.629200,0.767738,10.955479,15.844706,-0.020861,-0.157200,-0.081272,7.784000,24.828152

0.489330,1.196446,10.280083,15.844706,0.166728,-0.011978,0.153481,7.776000,24.828152

-1.057853,0.252808,9.029882,15.853529,0.119298,-0.101776,0.053291,7.776000,24.828152

-1.632658,1.517379,6.802514,15.856470,-0.010203,-0.133485,-0.205977,7.772000,24.828152

0.333654,0.602481,8.562854,15.850588,-0.164485,-0.190774,-0.304568,7.768000,24.828152

-0.916547,1.119806,12.133828,15.847647,-0.070690,-0.114300,-0.441796,7.772000,24.828152

-0.291447,3.742352,9.832214,15.859411,0.111570,-0.240869,-0.567033,7.776000,24.828152

-0.971632,3.651341,7.657536,15.850588,0.127825,-0.361310,-0.587285,7.772000,24.828152

-1.179999,1.426368,8.747270,15.868235,0.014578,-0.328802,-0.424476,7.772000,24.828152

-0.370482,2.420301,8.249105,15.856470,0.193108,-0.412471,-0.236087,7.780000,24.828152

-2.923573,4.286021,7.861113,15.844706,0.042024,-0.395418,-0.062354,7.780000,24.828152

-0.899782,6.530155,8.795171,15.856470,0.006584,-0.505200,0.246210,7.780000,24.828152

1.131195,5.454791,9.458591,15.847647,0.018841,-0.452707,0.505744,7.784000,24.828152

2.623292,4.060890,8.790380,15.871176,0.173390,-0.364508,0.678412,7.792000,24.828152

2.139498,3.268138,7.715016,15.871176,0.004719,-0.159865,0.701061,7.792000,24.828152

4.716539,3.713611,8.026369,15.850588,-0.062163,-0.057010,0.675215,7.792000,24.828152

5.966740,2.468201,8.867022,15.859411,-0.073621,0.236365,0.625919,7.796000,24.828152

4.797970,1.989197,11.441668,15.838821,-0.098669,0.350411,0.448988,7.792000,24.828152

3.942948,0.822823,10.280083,15.853529,0.034296,0.591293,0.309362,7.792000,24.828152

2.625687,1.493428,9.101733,15.856470,-0.055235,0.678959,0.054091,7.792000,24.828152

0.245038,-2.106286,7.506649,15.850588,-0.324895,0.711734,-0.207309,7.784000,24.828152

-0.061525,-2.245197,8.907737,15.865294,-0.138904,0.769556,-0.261667,7.784000,24.828152

-3.254086,0.676727,11.173425,15.865294,0.080927,0.750904,-0.393033,7.776000,24.828152

-4.432436,0.410880,10.026211,15.853529,-0.093606,0.479112,-0.957401,7.772000,24.828152

-6.278996,1.519774,8.138935,15.862352,0.095050,0.305645,-1.201214,7.780000,24.828152

-2.648146,1.742511,8.620334,15.850588,-0.154892,-0.018107,-1.249444,7.776000,24.828152

-0.150140,1.119806,11.226115,15.844706,-0.045376,-0.003451,-1.132733,7.780000,24.828152

0.525255,4.195011,10.763877,15.844706,0.088655,-0.048750,-0.888920,7.780000,24.828152

1.169515,4.017779,9.460986,15.850588,0.125959,-0.187044,-0.531594,7.780000,24.828152

1.806591,2.214329,8.292216,15.862352,0.158201,-0.113234,-0.228626,7.780000,24.828152

1.181490,1.778436,8.455077,15.859411,-0.046708,-0.104707,0.114844,7.772000,24.828152

-0.054340,2.669383,9.561577,15.841763,-0.002476,-0.034094,0.480431,7.780000,12.451557

-0.334557,3.665711,8.593988,15.832939,0.071335,0.032521,0.665622,7.776000,12.451557

-3.905531,2.717283,9.032277,15.853529,-0.033918,0.080218,0.657895,7.780000,12.451557

-5.028795,3.021451,9.343630,15.853529,0.048685,0.155360,0.468706,7.780000,12.451557

-4.755763,4.092025,8.996352,15.859411,0.028434,0.079952,0.324816,7.784000,12.451557

-7.464530,4.226146,9.913645,15.859411,0.027635,-0.052747,0.168936,7.792000,12.451557

-7.035821,1.677845,10.253737,15.847647,-0.146099,-0.205430,0.008525,7.792000,12.451557

-6.437067,1.831126,10.713581,15.853529,-0.058699,-0.302955,-0.032776,7.788000,12.451557

-5.847892,1.083880,9.887300,15.847647,0.077996,-0.410606,0.033306,7.792000,12.451557

-4.106713,-0.331576,8.673024,15.865294,-0.055768,-0.683996,0.212902,7.792000,12.451557

-0.401617,-0.930331,9.135263,15.844706,0.061209,-0.639497,0.391166,7.792000,12.451557

2.065253,-1.088403,11.285991,15.850588,-0.122117,-0.716238,0.576357,7.784000,12.451557

1.938317,-1.737453,11.570998,15.847647,0.053215,-0.471626,0.692535,7.780000,12.451557

6.491249,-4.041461,12.263159,15.853529,0.356183,-0.207561,0.646970,7.784000,12.451557

0.836608,2.458621,9.046648,15.847647,0.414272,0.271538,0.826299,7.780000,12.451557

-1.591942,1.804781,10.651311,15.847647,0.000455,0.135642,0.355460,7.768000,12.451557

-1.086593,4.398587,9.532837,15.862352,-0.056035,0.176677,0.061285,7.772000,12.451557

-2.751132,3.141202,9.444221,15.850588,-0.075753,0.078619,-0.260868,7.772000,12.451557

-2.276918,1.474268,10.854887,15.865294,0.111570,-0.032762,-0.634449,7.772000,12.451557

-2.727181,1.237161,9.312495,15.853529,0.050284,-0.152937,-0.961664,7.768000,12.451557

-2.921178,2.554422,8.225156,15.874117,-0.036316,-0.286967,-1.005364,7.772000,24.676373

-1.465006,5.526641,9.925620,15.844706,0.100645,-0.440716,-0.726911,7.772000,24.676373

0.280963,5.699083,10.086086,15.853529,0.135019,-0.438851,0.102853,7.772000,24.676373

0.577946,7.892920,6.675578,15.847647,0.280774,-0.501203,0.606201,7.780000,24.676373

3.152592,6.855877,8.337722,15.850588,-0.410430,-0.421797,0.825233,7.772000,24.676373

4.263881,1.112620,10.256132,15.847647,-0.228436,-0.181182,0.969922,7.780000,24.676373

4.280646,2.877750,8.752060,15.865294,0.187512,-0.042621,0.915297,7.784000,24.676373

4.979991,3.486085,7.173742,15.847647,-0.158889,0.119654,0.530792,7.784000,24.676373

5.588326,1.455108,9.623847,15.871176,-0.082414,0.365866,0.363986,7.788000,24.676373

1.171910,0.224068,10.842913,15.850588,-0.016332,0.551857,0.259000,7.792000,24.676373

1.210231,2.626273,8.483818,15.841763,-0.065094,0.559851,0.099389,7.784000,24.676373

0.474960,-0.271701,8.780800,15.853529,-0.118120,0.613942,0.012256,7.784000,24.676373

0.019906,-2.041620,9.446616,15.871176,-0.106662,0.460726,-0.241949,7.780000,24.676373

-1.790729,3.433394,8.821516,15.847647,0.077730,0.519348,-0.331747,7.776000,24.676373

-1.965565,1.263507,9.580737,15.835880,-0.207918,0.356007,-0.488960,7.768000,24.676373

-0.418383,-1.380595,10.011841,15.853529,-0.141835,0.166552,-0.589150,7.772000,24.676373

0.280963,0.362979,11.341076,15.847647,0.144345,0.191866,-0.646972,7.772000,24.676373

1.770665,4.288416,9.616662,15.821175,-0.203122,0.312307,-0.642442,7.768000,24.676373

2.379000,2.559212,5.602609,15.832939,0.073733,0.297918,-0.419680,7.772000,24.676373

1.035394,2.494547,7.341393,15.865294,0.101178,0.275002,-0.171603,7.768000,24.676373

-0.602799,4.805741,12.061977,15.868235,-0.173811,0.337354,-0.086602,7.768000,24.676373

1.226996,2.065838,9.683722,15.859411,-0.020062,0.289125,0.080737,7.772000,24.676373

0.534835,4.733890,7.449169,15.856470,0.092652,0.400506,0.419677,7.776000,24.646415

-0.710575,2.250255,6.790539,15.832939,-0.096803,0.301382,0.576890,7.776000,24.646415

0.041461,3.105277,9.319680,15.856470,0.072667,0.437278,0.562235,7.780000,24.646415

-1.668583,1.740115,7.988049,15.844706,-0.038448,0.484708,0.429270,7.780000,24.646415

-4.521051,4.822506,7.439589,15.844706,-0.036849,0.605149,0.248075,7.784000,24.646415

-3.428922,4.295601,9.925620,15.874117,-0.054969,0.518282,-0.037306,7.788000,24.646415

-6.683753,3.225028,11.733860,15.838821,-0.187933,0.499363,-0.338142,7.788000,24.646415

-7.636971,0.073182,10.574670,15.874117,0.143279,0.175612,-0.692804,7.796000,24.646415

-8.192616,0.269574,9.542417,15.829998,0.077197,0.036785,-0.858543,7.792000,24.646415

-6.626273,1.792806,9.202324,15.850588,-0.066693,-0.143610,-0.916632,7.792000,24.646415

-1.371600,1.325777,10.428574,15.838821,-0.251884,-0.375433,-0.729309,7.788000,24.646415

1.167120,0.549791,11.750625,15.859411,0.104109,-0.360777,-0.611000,7.788000,24.646415

0.522860,-0.207035,9.880115,15.865294,0.232811,-0.462300,-0.411952,7.788000,24.646415

3.411253,0.336634,8.091035,15.847647,0.077463,-0.383427,-0.206776,7.788000,24.646415

4.587208,1.790411,10.129196,15.844706,0.055080,-0.043421,-0.068482,7.772000,24.646415

0.558785,2.623878,11.103970,15.859411,0.363644,0.067961,-0.150020,7.776000,24.646415

-2.415829,0.868328,9.120893,15.841763,0.092652,-0.069534,-0.289913,7.772000,24.646415

-0.823141,-0.913566,7.717412,15.850588,-0.236696,-0.081791,-0.464712,7.772000,24.646415

-1.536857,5.205709,9.128078,15.829998,0.153405,0.146834,-0.632583,7.776000,24.646415

-1.637448,2.975945,11.300361,15.838821,-0.094672,-0.135883,-0.822038,7.772000,24.646415

-1.407526,1.680240,9.238249,15.844706,0.123561,-0.238471,-0.858010,7.776000,24.646415

-1.309330,4.144715,8.409573,15.847647,0.194174,-0.340793,-0.794326,7.768000,24.646415

-2.379904,3.536380,7.518625,15.850588,0.189910,-0.394352,-0.691205,7.772000,24.646415

-2.930758,1.438343,8.725715,15.850588,0.021506,-0.406342,-0.655499,7.772000,24.646415

-2.430199,5.828414,9.326865,15.847647,0.170459,-0.390888,-0.666690,7.784000,24.646415

0.395924,5.684713,8.364067,15.829998,0.061742,-0.412471,-0.640577,7.780000,24.646415

-0.039970,5.677528,9.832214,15.829998,0.099580,-0.373568,-0.486029,7.788000,24.646415

0.156422,5.248819,9.853769,15.838821,0.125160,-0.431656,-0.365588,7.784000,24.646415

3.571720,5.696688,9.535232,15.832939,0.106241,-0.498006,-0.158014,7.788000,24.646415

3.892653,2.508917,9.647798,15.844706,0.109705,-0.340526,0.136694,7.792000,24.646415

4.956041,2.832244,10.567485,15.832939,-0.025924,-0.269914,0.417012,7.792000,24.646415

3.480709,2.777159,11.245275,15.835880,-0.014733,-0.099911,0.436464,7.788000,24.646415

1.880836,4.104000,10.294453,15.829998,0.138483,0.027991,0.318954,7.788000,24.646415

1.801800,-1.119538,8.088639,15.841763,0.117433,0.093008,0.200911,7.784000,24.646415

-2.130822,-2.506254,7.726991,15.838821,0.085990,0.062631,0.232354,7.788000,24.646415

-3.072064,-1.457236,9.465776,15.829998,-0.001943,0.093275,0.160409,7.784000,24.646415

-2.892438,-0.298046,11.673985,15.829998,-0.107995,0.183872,-0.047965,7.780000,24.646415

-0.590824,0.080367,9.099339,15.829998,0.035096,0.065829,-0.142026,7.784000,24.646415

2.070043,3.577096,8.249105,15.838821,0.125959,0.067161,0.009058,7.784000,24.646415

0.889298,2.674173,8.718530,15.829998,-0.042445,0.083682,0.150017,7.776000,24.646415

-1.084198,3.244188,9.578342,15.832939,0.061209,0.092742,0.073009,7.776000,24.646415

-0.933312,4.139925,7.880273,15.821175,-0.055235,0.086613,0.096458,7.772000,12.687516

-1.239874,2.417906,8.395202,15.841763,-0.143168,0.159357,0.151083,7.776000,12.687516

-1.220714,3.198682,11.173425,15.847647,-0.048574,0.191599,0.328813,7.784000,12.687516

-1.685348,4.784185,8.833491,15.838821,0.090786,0.256083,0.541717,7.784000,12.687516

-1.112938,4.365057,6.519902,15.835880,-0.110126,0.202791,0.747959,7.780000,12.687516

-2.114057,4.195011,8.972402,15.844706,0.014844,0.216114,0.852945,7.788000,12.687516

-3.936666,4.254886,9.264594,15.838821,-0.119986,0.267808,0.803117,7.792000,12.687516

-5.311408,3.311248,10.418994,15.841763,0.003120,0.282996,0.539852,7.788000,12.687516

-5.788016,3.632181,10.629756,15.832939,-0.074420,0.178543,0.121239,7.796000,12.687516

-4.360585,3.531590,10.069321,15.841763,-0.107195,0.024527,-0.399429,7.792000,12.687516

-4.372560,-0.901591,11.721885,15.841763,-0.077352,-0.094581,-0.634715,7.792000,12.687516

-1.496141,0.312684,10.795012,15.835880,0.101978,-0.124159,-0.780203,7.800000,12.687516

0.771942,1.385653,11.453642,15.832939,-0.047774,-0.308551,-0.699465,7.792000,12.687516

4.563258,0.209698,8.043135,15.827057,0.158734,-0.378097,-0.625389,7.784000,12.687516

4.421952,-2.793657,7.820397,15.838821,0.120897,-0.464698,-0.619527,7.788000,12.687516

3.502264,0.858748,11.257251,15.832939,0.020707,0.008540,-0.657098,7.784000,12.687516

-1.342860,1.613179,10.430969,15.827057,-0.021661,0.059167,-0.506280,7.776000,12.687516

-0.995582,1.838311,9.156818,15.835880,0.121962,-0.156134,-0.463113,7.776000,12.687516

-2.327213,2.108948,9.037067,15.815292,0.073466,-0.167059,-0.494023,7.776000,12.687516

-2.573900,2.065838,10.560300,15.829998,0.149142,-0.259788,-0.265931,7.776000,12.687516

-3.725904,1.998778,7.707831,15.827057,0.094250,-0.371969,-0.165475,7.776000,25.674437

-3.474427,-0.084889,8.550879,15.838821,0.070535,-0.399681,-0.141493,7.776000,25.674437

-1.225504,1.819151,8.409573,15.844706,-0.022460,-0.415669,-0.009594,7.768000,25.674437

0.046251,3.716007,8.526928,15.827057,0.125959,-0.426594,0.197447,7.772000,25.674437

0.137262,3.306458,9.808264,15.821175,0.097714,-0.427393,0.262731,7.776000,25.674437

0.091757,5.275165,9.312495,15.818233,0.037227,-0.387424,0.173732,7.776000,25.674437

0.264198,4.894356,9.803473,15.838821,0.009515,-0.349852,-0.270727,7.780000,25.674437

1.576669,4.705150,8.787985,15.818233,0.013512,-0.222750,-0.438332,7.788000,25.674437

0.704881,4.674015,7.724597,15.821175,-0.032586,-0.117764,-0.445793,7.788000,25.674437

3.133431,3.225028,10.984219,15.829998,0.028434,-0.229944,-0.190256,7.788000,25.674437

3.739371,1.519774,9.626243,15.835880,0.226682,-0.187310,0.196382,7.792000,25.674437

1.926342,3.850127,8.045529,15.824116,0.048685,-0.191307,0.458048,7.796000,25.674437

2.041302,0.978499,9.664562,15.824116,-0.014466,-0.031430,0.622721,7.792000,25.674437

2.623292,-1.792538,9.808264,15.829998,-0.227636,0.127915,0.630982,7.792000,25.674437

0.060621,-0.700409,11.101574,15.835880,-0.218310,0.255017,0.575558,7.784000,25.674437

1.466498,-0.803395,10.641730,15.838821,0.159800,0.272071,0.450587,7.784000,25.674437

0.724042,2.238280,8.807145,15.829998,0.152339,0.290990,0.244078,7.776000,25.674437

-0.526159,0.307894,11.000983,15.832939,0.018308,0.345082,0.115910,7.780000,25.674437

-2.030231,-0.036989,11.482383,15.821175,0.020707,0.221976,-0.111916,7.776000,25.674437

-0.930917,2.159244,8.198811,15.827057,0.126759,0.248622,-0.278988,7.780000,25.674437

-0.360902,6.357713,9.017907,15.844706,-0.029388,0.245958,-0.263000,7.772000,25.674437

0.235458,2.106554,10.064531,15.838821,-0.032319,0.182806,-0.135897,7.776000,25.674437

2.395765,2.001173,8.771220,15.824116,0.118232,0.198527,0.017319,7.776000,25.674437

3.054396,5.402101,8.371252,15.835880,0.076397,0.363201,0.372247,7.780000,25.674437

1.787430,4.652460,5.585844,15.815292,0.055347,0.436478,0.931552,7.776000,25.674437

0.633031,5.351805,4.951164,15.821175,-0.111992,0.425287,1.277420,7.784000,25.674437

-0.408803,4.870406,4.412284,15.838821,-0.187667,0.548659,1.260366,7.780000,25.674437

-0.674650,1.198841,13.077465,15.835880,-0.335021,0.756233,0.822835,7.780000,25.674437

-1.474586,-0.621374,14.119299,15.818233,0.324474,0.853226,0.097790,7.792000,25.674437

-10.228383,6.568475,4.426655,15.824116,-0.083480,0.751437,-0.985380,7.796000,25.674437

-8.475228,-1.050082,9.432246,15.829998,-0.474647,0.225973,-1.692038,7.792000,25.674437

-4.741393,-0.527968,12.648757,15.824116,-0.110659,0.207854,-1.975821,7.792000,25.674437

-5.773646,0.602481,11.384187,15.827057,-0.001143,-0.068202,-1.755456,7.796000,25.674437

-3.586993,0.784503,8.510163,15.829998,-0.056035,-0.460701,-1.412519,7.792000,25.674437

-0.001649,0.786898,9.858560,15.827057,0.138750,-0.639764,-1.084770,7.788000,25.674437

