ax,ay,az,gx,gy,gz,temp,volt,vel

0.800682,0.571346,9.671748,16.577057,-0.001676,-0.005849,-0.001334,2.760000,0.000000

0.451009,0.664752,9.669353,16.609411,-0.002209,-0.007182,-0.002666,2.696000,0.000000

0.501305,0.616851,9.705278,16.603529,-0.004074,-0.011978,-0.005864,2.656000,0.000000

0.589921,0.686307,9.712463,16.600588,-0.003808,-0.013843,-0.001334,2.620000,0.000000

0.656981,0.595296,9.678933,16.591763,-0.004341,-0.016774,0.008259,2.584000,0.000000

0.731227,0.576136,9.681328,16.612352,-0.005940,-0.018906,0.011989,2.552000,0.000000

0.793497,0.580926,9.695698,16.606470,-0.003808,-0.014909,0.008792,2.512000,0.000000

0.800682,0.561766,9.659773,16.632940,-0.004074,-0.010912,0.004795,2.480000,0.000000

0.637821,0.602481,9.652588,16.621176,-0.004607,-0.010379,0.000532,2.444000,0.000000

0.649796,0.628826,9.671748,16.629999,-0.004874,-0.011712,-0.006130,2.412000,0.000000

0.709672,0.633617,9.657377,16.635881,-0.003275,-0.010912,-0.004531,2.376000,0.000000

0.702486,0.547396,9.676538,16.638823,-0.004874,-0.012777,0.006127,2.340000,0.000000

0.719252,0.535421,9.657377,16.641764,-0.003275,-0.011978,0.006394,2.292000,0.000000

0.673746,0.597691,9.640613,16.635881,-0.003541,-0.013577,0.003463,2.260000,0.000000

0.721647,0.604876,9.676538,16.656469,-0.002209,-0.013310,-0.000534,2.232000,0.000000

0.750387,0.626431,9.674143,16.650587,-0.005407,-0.012777,-0.001334,2.200000,0.000000

0.740807,0.590506,9.671748,16.665293,-0.004341,-0.010646,0.003196,2.164000,0.000000

0.716857,0.580926,9.654983,16.650587,-0.003541,-0.007981,0.007460,2.132000,0.000000

0.625846,0.576136,9.664562,16.677057,-0.001143,-0.009846,0.005061,2.100000,0.000000

0.661771,0.614456,9.671748,16.656469,-0.003808,-0.012511,-0.000801,2.072000,0.000000

0.721647,0.626431,9.662168,16.671175,-0.003808,-0.013310,0.000532,2.044000,0.000000

0.793497,0.602481,9.640613,16.653528,-0.003275,-0.012244,0.003729,2.008000,0.000000

0.805472,0.626431,9.669353,16.682940,-0.000344,-0.007981,0.008525,1.976000,0.000000

0.719252,0.602481,9.698093,16.665293,-0.004341,-0.009846,0.013588,1.952000,0.000000

0.702486,0.578531,9.702883,16.685881,-0.003808,-0.010646,0.007460,1.916000,0.000000

0.824632,0.595296,9.686118,16.677057,-0.002742,-0.007448,0.001864,1.888000,0.000000

0.831818,0.621641,9.643007,16.682940,-0.003275,-0.004517,0.003463,1.860000,0.000000

0.858163,0.652777,9.652588,16.679998,-0.002476,-0.005583,0.013322,1.836000,0.000000

0.800682,0.674332,9.702883,16.674116,-0.003808,-0.003451,0.022648,1.800000,0.000000

0.862953,0.595296,9.686118,16.679998,-0.004074,-0.000787,0.017319,1.784000,0.000000

0.877323,0.549791,9.635822,16.691763,-0.001410,0.006941,0.005328,1.752000,0.000000

0.848583,0.621641,9.654983,16.685881,0.000722,0.007740,0.017585,1.720000,0.000000

0.743202,0.717442,9.688513,16.682940,-0.003009,0.008806,0.041567,1.692000,0.000000

0.611476,0.657567,9.666958,16.688822,-0.001943,0.006674,0.054890,1.668000,0.000000

0.702486,0.559371,9.611873,16.685881,-0.003541,0.000546,0.049827,1.632000,0.000000

0.642611,0.585716,9.652588,16.706469,-0.001943,0.000812,0.037303,1.612000,0.000000

0.707277,0.729417,9.547207,16.712351,0.008982,-0.010379,0.016519,1.580000,0.000000

0.963544,0.516261,9.573552,16.718235,-0.007005,-0.007448,0.010657,1.560000,0.000000

0.901273,0.631221,9.693303,16.694704,-0.007538,0.004276,0.000532,1.532000,0.000000

0.673746,0.679122,9.676538,16.715292,0.007384,0.001345,-0.003465,1.508000,0.000000

0.668956,0.456385,9.609477,16.718235,-0.009137,0.000812,0.004262,1.484000,0.000000

0.707277,0.511470,9.753179,16.718235,-0.008338,0.001079,0.011457,1.456000,0.000000

0.678536,0.501890,9.705278,16.706469,-0.002476,0.003477,0.016519,1.432000,0.000000

0.656981,0.489915,9.652588,16.715292,-0.000610,-0.007981,0.019717,1.412000,0.000000

0.839003,0.449200,9.674143,16.709410,-0.001676,0.000279,0.010124,1.388000,0.000000

0.846188,0.636012,9.681328,16.709410,-0.001943,0.013336,-0.011726,1.368000,0.000000

0.747992,0.683912,9.659773,16.735882,-0.004341,-0.001586,-0.019720,1.344000,0.000000

0.712067,0.518656,9.676538,16.735882,-0.005140,0.005076,-0.020785,1.328000,0.000000

0.542020,0.439620,9.650192,16.741764,-0.000877,0.002944,-0.014657,1.292000,0.000000

0.405504,0.506680,9.662168,16.735882,0.001521,-0.008248,-0.000801,1.268000,0.000000

0.120497,0.703072,9.777128,16.750587,0.002054,0.006941,0.013322,1.248000,0.000000

0.467775,0.655172,9.676538,16.741764,-0.003541,-0.028232,0.026112,1.224000,0.000000

0.546810,0.525841,9.750783,16.747646,0.002854,-0.027699,0.031974,1.208000,0.000000

0.927618,0.501890,9.698093,16.735882,-0.000077,-0.034094,0.073542,1.188000,0.000000

0.831818,0.315079,9.757969,16.735882,0.009249,-0.027166,0.109248,1.172000,0.000000

0.455800,0.485125,9.537626,16.753529,0.012180,0.004276,0.148951,1.156000,0.000000

0.918038,0.633617,9.743598,16.759411,0.015644,-0.027433,0.181193,1.144000,0.000000

1.186280,1.093460,9.408296,16.759411,0.023904,-0.034094,0.213435,1.128000,0.000000

0.338444,0.956944,9.573552,16.747646,0.003387,-0.045552,0.253671,1.120000,0.000000

0.747992,1.514984,9.343630,16.756470,-0.003541,-0.089252,0.295506,1.108000,0.000000

0.831818,1.498219,9.611873,16.762352,0.014844,-0.089252,0.348265,1.096000,0.000000

1.387462,1.596414,9.501701,16.753529,-0.000077,-0.088719,0.383705,1.084000,0.000000

1.260526,1.297037,9.489726,16.753529,-0.008071,-0.067402,0.344801,1.076000,0.000000

0.872533,2.013148,9.334050,16.777058,-0.030987,-0.093782,0.296038,1.068000,0.000000

1.976637,1.459898,9.393926,16.768234,0.003120,-0.072731,0.196382,1.060000,0.000000

2.390975,1.356912,9.161609,16.777058,-0.095205,-0.091917,0.161208,1.052000,0.000000

1.550323,1.895792,9.772339,16.774117,-0.003541,0.036785,0.110048,1.048000,0.000000

0.877323,1.471873,9.355605,16.765293,-0.051771,-0.034627,0.092461,1.040000,0.000000

0.288148,1.900582,9.810658,16.785881,0.094250,0.022929,0.109515,1.064000,0.000000

1.344352,0.039652,9.183164,16.785881,-0.084280,-0.069800,0.138826,1.072000,0.000000

1.021024,1.833521,10.071716,16.788822,-0.081082,-0.042355,0.195049,1.064000,0.000000

1.018629,1.601204,9.643007,16.794704,-0.077085,-0.028232,0.239548,1.352000,0.000000

1.097665,0.257598,9.573552,16.791763,-0.078684,-0.043421,0.337340,1.300000,0.000000

1.507213,1.016820,9.757969,16.803528,0.020440,-0.011445,0.379175,1.284000,0.000000

1.485658,1.799991,8.529324,16.785881,0.000455,0.018665,0.367450,1.308000,0.000000

1.224601,0.995264,9.449011,16.791763,-0.000077,0.028791,0.418611,1.340000,0.000000

0.918038,2.410721,9.053833,16.809410,0.068670,0.042114,0.396495,2.100000,0.000000

1.375487,1.342542,9.705278,16.791763,-0.072822,-0.014376,0.369049,2.812000,0.000000

1.739530,1.462293,10.342353,16.797646,0.004985,0.043713,0.360789,3.392000,0.000000

1.449733,2.070628,9.916039,16.797646,0.019108,0.023994,0.292574,3.692000,0.000000

1.658099,-0.468093,9.154424,16.800587,0.017509,0.041847,0.274988,4.052000,0.000000

1.653309,1.323382,8.421547,16.791763,0.039892,0.036518,0.288578,4.232000,0.000000

0.965939,-0.163925,8.931686,16.815292,-0.007005,0.102334,0.232087,4.564000,0.000000

1.904786,1.347332,9.602292,16.803528,0.011647,0.055437,0.146020,4.972000,0.000000

2.082018,0.492310,11.647639,16.806469,0.075065,0.090344,0.121239,5.064000,0.000000

3.047211,2.319710,8.411967,16.815292,0.008449,0.131379,0.085533,5.480000,0.000000

0.489330,1.658685,8.469448,16.824116,0.100379,0.135376,0.069012,5.548000,0.000000

1.016234,1.747301,8.553273,16.821175,0.026036,0.136974,0.061019,5.684000,0.000000

1.373092,0.978499,7.669511,16.803528,-0.093606,0.217713,-0.000801,5.628000,0.000000

-0.669860,-2.032040,14.279765,16.818233,-0.032586,0.187069,-0.036507,5.544000,0.000000

2.661613,1.524564,9.633428,16.818233,0.099313,0.147367,-0.019720,5.940000,0.000000

-1.680558,0.080367,8.979588,16.815292,0.108373,0.176411,0.047962,5.772000,0.000000

0.553995,1.167706,9.350815,16.824116,0.005785,0.179342,-0.097260,5.632000,0.000000

0.994679,0.736602,9.753179,16.809410,0.049751,0.147633,-0.199049,5.688000,0.000000

1.523978,-0.025014,11.206955,16.838821,-0.005407,0.132178,-0.196651,5.820000,0.000000

2.613712,4.585399,9.683722,16.847647,0.068670,0.135376,-0.092730,6.024000,0.000000

-0.542924,0.089947,8.867022,16.829998,-0.037382,0.016800,0.260599,5.928000,0.000000

-0.183671,0.207303,10.284873,16.844706,-0.049107,0.047177,0.365052,5.916000,0.000000

0.690511,0.025282,9.393926,16.838821,0.099846,0.007207,0.390899,6.104000,0.000000

1.049764,3.380704,9.137658,16.838821,0.006584,0.027458,0.372513,6.080000,0.000000

-0.176486,-0.997392,7.710226,16.838821,0.027102,-0.004251,0.179328,5.956000,0.000000

-0.073500,-2.633190,12.344589,16.850588,0.082526,0.011737,-0.061021,5.784000,0.000000

2.544257,-0.173505,9.393926,16.841763,-0.029655,0.118855,-0.157747,5.692000,0.000000

2.292779,2.001173,8.459867,16.832939,-0.005140,0.154028,-0.095395,5.600000,0.000000

-1.577572,-2.448774,9.628637,16.844706,0.067604,0.022396,0.091129,5.460000,0.000000

-1.045878,-0.420192,11.669194,16.829998,-0.123716,0.030922,0.394630,5.336000,0.000000

-0.940497,0.020492,9.726833,16.844706,0.006851,-0.064205,0.690136,5.204000,0.000000

-1.642238,1.649105,9.235854,16.829998,0.108373,-0.044753,0.887052,5.128000,0.000000

-0.873436,1.014425,9.475356,16.847647,0.007650,-0.108437,1.018152,5.120000,0.000000

0.051041,0.106712,10.311218,16.856470,-0.124782,-0.100444,1.160176,5.040000,0.000000

1.643729,1.747301,11.446457,16.841763,0.024970,-0.142545,1.162575,5.028000,0.000000

0.827027,0.415670,9.482541,16.835880,-0.004074,-0.059142,0.970455,5.468000,0.000000

0.982704,1.184471,10.167517,16.859411,-0.005940,-0.017840,0.893980,5.376000,0.000000

3.538190,2.044283,9.808264,16.841763,0.109439,-0.061274,0.832161,5.372000,0.000000

1.454523,-0.135185,9.468171,16.847647,0.191776,0.009339,0.711720,5.888000,0.000000

0.386344,0.173773,10.579460,16.850588,0.059877,0.107930,0.518268,6.212000,0.000000

1.876046,2.889725,8.699369,16.847647,0.157402,0.066628,0.173466,6.224000,0.000000

1.188675,1.016820,8.507768,16.847647,0.082259,0.249688,-0.169738,6.388000,0.000000

1.746715,-0.063334,8.560458,16.850588,0.039625,0.186803,-0.336277,6.344000,0.000000

0.563575,0.863538,7.600055,16.856470,-0.037116,0.393045,-0.466844,6.220000,0.000000

3.732186,3.102882,10.986613,16.844706,0.075864,0.282463,-0.737836,6.280000,0.000000

-2.190697,-3.825910,10.066926,16.844706,0.000722,0.346947,-0.903842,6.132000,0.000000

0.817447,0.894674,9.741203,16.865294,0.028967,0.205455,-0.812978,5.996000,0.000000

0.412689,2.516102,9.008327,16.847647,0.082526,0.175878,-0.867337,5.856000,0.000000

-1.201554,-1.160253,9.398716,16.868235,-0.084280,0.146567,-0.910504,5.728000,0.000000

0.508490,0.727022,10.694421,16.850588,-0.181538,0.156959,-0.846553,5.608000,0.000000

1.674865,1.309012,10.359118,16.868235,-0.025125,0.153495,-0.751426,5.564000,0.000000

-0.590824,0.226463,9.307705,16.856470,-0.115722,0.205722,-0.662161,5.668000,0.000000

-0.190856,0.755763,9.729228,16.871176,-0.102665,0.112726,-0.516406,5.552000,0.000000

0.690511,1.052745,9.604687,16.865294,0.026835,0.017866,-0.316559,5.444000,0.000000

0.352814,-0.072914,8.701765,16.853529,0.006584,0.024527,-0.111649,5.620000,0.000000

-0.262706,2.937625,10.239367,16.871176,0.106508,0.044246,0.240881,6.184000,0.000000

-1.024323,1.026400,8.799960,16.871176,0.025237,0.078353,0.413548,6.260000,0.000000

-1.730853,2.453831,9.609477,16.859411,-0.016865,-0.001586,0.482562,6.384000,0.000000

-0.135770,2.350845,8.347301,16.850588,0.069203,-0.034894,0.501215,6.668000,0.000000

-0.459098,-0.583053,10.483660,16.877058,0.004719,0.019465,0.555573,6.620000,0.000000

0.992284,1.519774,9.008327,16.874117,-0.159955,0.094873,0.413548,6.632000,0.000000

1.011444,1.057535,9.087363,16.856470,-0.033385,0.088212,0.305631,6.792000,0.000000

2.053277,1.050350,10.064531,16.877058,0.019108,0.103134,0.280051,6.756000,0.000000

-0.871041,0.075577,9.628637,16.882940,-0.092273,0.118589,-0.023983,6.656000,0.000000

0.441429,2.231094,10.387858,16.874117,-0.114390,0.178010,-0.356528,6.764000,0.000000

2.575392,2.449041,10.035790,16.879999,-0.130111,0.139906,-0.466577,6.612000,0.000000

2.074833,0.928204,9.350815,16.871176,0.069203,0.151097,-0.592880,6.520000,0.000000

-1.220714,2.626273,8.850256,16.882940,-0.178341,0.247556,-0.569432,6.540000,0.000000

-1.031508,0.458780,8.249105,16.868235,-0.153560,0.189468,-0.414883,6.808000,0.000000

-0.650700,-0.068124,9.796288,16.882940,-0.344613,0.170016,-0.229958,6.864000,0.000000

-0.957262,1.783226,10.114826,16.879999,0.099580,0.054904,-0.139361,6.924000,0.000000

-2.193092,-2.958913,10.500424,16.874117,-0.082681,0.090610,-0.090599,6.980000,0.000000

-1.596732,-0.250146,11.848821,16.877058,-0.242025,0.242760,-0.154550,6.956000,0.000000

0.515675,-0.523178,9.822634,16.891764,0.003653,0.131912,-0.300038,7.084000,0.000000

1.147960,4.614139,10.713581,16.891764,0.039625,0.194530,-0.578225,7.140000,0.000000

1.962267,2.767579,7.954518,16.871176,-0.009670,0.247024,-0.714121,7.156000,0.000000

0.182767,0.329449,8.706554,16.888823,-0.025658,0.283795,-0.721848,7.172000,0.000000

-1.122518,2.434671,11.877561,16.879999,-0.081881,0.355740,-0.794059,7.148000,0.000000

-1.637448,-2.484699,9.961545,16.885881,0.067338,0.214249,-0.879327,7.164000,0.000000

0.177977,-0.271701,8.543694,16.888823,-0.007272,0.223575,-0.937949,7.168000,0.000000

-0.906967,1.982013,9.116103,16.879999,0.058811,0.259281,-1.046399,7.152000,0.000000

-0.202831,2.053863,8.237131,16.882940,-0.007272,0.128714,-1.144724,7.152000,0.000000

0.180372,0.782108,8.469448,16.874117,0.075598,0.053572,-1.231857,7.164000,0.000000

0.307308,-1.761403,12.560142,16.871176,-0.315303,0.271005,-1.173236,7.140000,0.000000

0.702486,-1.270424,10.622570,16.877058,0.081194,0.212916,-1.238519,7.184000,0.000000

-2.159562,-1.588962,11.947017,16.877058,-0.145832,0.282729,-1.451689,7.140000,0.000000

-1.500932,4.939862,10.866862,16.877058,-0.111192,0.151363,-1.409321,7.172000,0.000000

-0.413593,1.325777,6.603727,16.882940,0.159001,-0.003185,-1.279288,7.168000,0.000000

-0.351322,0.147428,7.350973,16.897646,-0.174877,-0.017041,-1.171370,7.168000,0.000000

-2.106871,3.248978,7.427614,16.874117,0.196838,0.145501,-0.996837,7.184000,0.000000

-1.127308,2.640643,11.439272,16.897646,-0.349943,-0.110836,-0.829765,7.196000,0.000000

-1.647028,1.919742,8.878996,16.894705,0.276777,-0.006382,-0.669355,7.232000,0.000000

0.956359,1.282667,10.615385,16.891764,-0.210849,-0.253127,-0.457784,7.224000,0.000000

0.321678,2.044283,10.342353,16.903528,0.051883,-0.110303,-0.157214,7.244000,0.000000

1.212626,-4.692907,15.434165,16.897646,-0.164485,-0.053280,0.027977,7.232000,0.000000

-3.270851,-0.726755,10.069321,16.900587,0.386027,0.143103,0.002930,7.260000,0.000000

-2.367929,0.798873,7.909013,16.891764,0.347123,-0.102575,0.045031,7.264000,0.000000

-2.822982,-0.472883,6.713898,16.882940,-0.162620,-0.129222,0.196382,7.252000,0.000000

-1.826654,3.773487,7.983259,16.909410,0.314348,0.058635,0.112179,7.260000,0.000000

-3.194210,3.850127,6.864784,16.882940,0.140348,-0.144676,-0.096461,7.256000,0.000000

-0.255521,-2.836767,12.428415,16.888823,-0.085612,-0.326137,-0.189456,7.264000,0.000000

-0.013624,2.837034,9.156818,16.888823,0.331935,-0.089785,-0.219033,7.292000,0.000000

0.072596,2.295760,16.246077,16.891764,0.363111,-0.122027,-0.189723,7.272000,0.000000

-4.135453,3.541170,8.486213,16.900587,0.305555,0.020264,-0.288847,7.232000,0.000000

-0.241151,-4.297729,8.194020,16.891764,-0.163685,-0.443647,-0.035174,7.252000,0.000000

-1.491351,2.173614,11.585368,16.888823,-0.236696,-0.041822,0.280317,7.252000,0.000000

0.015116,0.770133,4.146437,16.891764,0.343659,-0.273644,0.457515,7.240000,0.000000

-0.550109,-1.064452,13.209191,16.894705,-0.377921,-0.258456,0.783132,7.224000,0.000000

-4.209699,-0.626164,11.494358,16.894705,0.253595,-0.048750,0.757019,7.224000,0.000000

-3.893556,-1.598542,8.411967,16.903528,-0.034718,-0.511862,0.498816,7.252000,0.000000

-2.288893,-0.480068,9.817844,16.900587,0.047086,-0.258722,0.482829,7.260000,0.000000

-1.807494,2.765184,5.913961,16.894705,-0.173811,-0.295494,0.220630,7.244000,0.000000

0.973124,1.371283,8.335326,16.900587,0.016976,-0.237938,0.091662,7.252000,0.000000

1.001864,-1.723083,12.967295,16.885881,-0.194595,-0.082324,-0.161211,7.260000,0.000000

-0.207621,6.123002,13.166081,16.897646,0.229080,0.056236,-0.290712,7.272000,0.000000

1.169515,0.420460,9.597502,16.906469,0.261855,-0.212624,0.160409,7.292000,0.000000

-1.448241,6.587635,5.058939,16.894705,0.440652,-0.002385,0.357858,7.288000,2693.141796

-5.747301,3.031031,7.861113,16.900587,-0.520479,-0.186244,0.515604,7.272000,2693.141796

-0.169301,-5.097665,9.889694,16.885881,-0.094405,-0.551831,0.654697,7.252000,2693.141796

-2.315238,-1.730268,12.105087,16.906469,-0.028855,-0.091117,0.725310,7.256000,2693.141796

-2.729577,-1.830859,11.903906,16.879999,0.071867,-0.276042,0.770075,7.260000,2693.141796

-0.648305,-0.666879,8.239526,16.885881,-0.108261,-0.337062,0.964060,7.264000,2693.141796

-0.684230,1.153336,9.532837,16.900587,0.094517,-0.190508,1.224394,7.264000,2693.141796

-1.110543,2.559212,6.524692,16.912352,-0.143701,-0.230477,1.238783,7.252000,2693.141796

0.443824,4.233331,7.571315,16.903528,-0.045110,-0.223816,1.275821,7.260000,2693.141796

0.283358,1.047955,11.214140,16.903528,0.042557,-0.201699,1.374146,7.256000,2693.141796

0.046251,-1.387780,6.625282,16.900587,-0.062430,-0.257124,1.326982,7.268000,2693.141796

-3.036139,-1.531481,11.614109,16.897646,-0.121318,0.091143,1.189754,7.284000,2693.141796

0.743202,3.775882,9.717253,16.900587,0.422532,-0.210759,0.807913,7.292000,2693.141796

-0.815956,-0.027409,9.511281,16.894705,-0.090941,0.095406,0.737833,7.300000,2693.141796

2.826869,-0.585448,6.730663,16.900587,0.027102,0.021596,0.563833,7.296000,2693.141796

2.949015,4.068075,9.520862,16.882940,0.357515,0.242494,0.405288,7.292000,2693.141796

0.542020,-1.536271,8.021579,16.885881,-0.263609,0.357339,0.381040,7.292000,2693.141796

-1.347650,-0.956676,14.634228,16.891764,-0.127979,0.269406,0.142823,7.276000,2693.141796

2.489171,-0.343551,11.499147,16.885881,0.106241,0.202524,-0.140694,7.288000,2693.141796

2.640057,1.641920,12.806828,16.879999,0.137684,0.266742,-0.432470,7.292000,2693.141796

2.173028,3.335198,8.596384,16.879999,0.069736,0.357339,-0.673086,7.284000,2693.141796

0.127682,-2.719411,12.167358,16.903528,0.055613,0.304313,-0.887321,7.272000,2693.141796

1.080899,-0.022619,10.816567,16.897646,-0.226837,0.420757,-0.847618,7.260000,2693.141796

1.868861,-1.251264,9.508886,16.874117,0.124094,0.459128,-0.949940,7.272000,2693.141796

-0.119005,5.818834,8.893367,16.885881,0.353252,0.427952,-1.055726,7.288000,2693.141796

-1.800309,2.616693,6.112748,16.882940,-0.292387,0.239296,-0.816975,7.272000,2693.141796

-0.667465,0.379744,4.314089,16.897646,-0.073088,0.122586,-0.792461,7.280000,2693.141796

1.282081,1.268297,11.590158,16.885881,-0.136240,0.167351,-0.777272,7.296000,2693.141796

1.231786,-6.666403,13.908537,16.888823,-0.073088,0.140971,-0.688540,7.284000,2693.141796

-0.693810,-2.903827,11.103970,16.888823,-0.316901,0.418892,-0.828966,7.292000,2693.141796

0.836608,6.470279,6.481581,16.882940,0.420667,0.114592,-1.057058,7.280000,2693.141796

-2.188302,1.572464,6.991720,16.891764,-0.282794,0.011471,-0.900112,7.296000,2693.141796

0.712067,-1.193783,10.864468,16.879999,-0.320365,-0.081525,-0.741566,7.240000,2693.141796

1.593434,-2.000905,17.817209,16.879999,-0.311839,0.125250,-0.618727,7.304000,2693.141796

-0.348927,3.337594,11.935041,16.897646,0.736958,-0.018906,-0.723980,7.320000,2693.141796

-0.162116,2.645433,8.464658,16.891764,0.338330,-0.132686,-0.366920,7.336000,2693.141796

-1.656608,-0.571078,7.259963,16.882940,0.145145,-0.163062,-0.188923,7.324000,2693.141796

-1.218319,2.568792,11.216536,16.903528,0.008716,-0.132686,-0.031177,7.332000,2693.141796

0.242643,2.772369,9.803473,16.885881,0.761472,-0.166526,-0.105787,7.352000,2693.141796

-1.618287,-6.237694,7.178532,16.882940,0.036161,-0.147075,-0.039171,7.348000,2693.141796

0.199532,4.851246,9.082573,16.879999,-0.126647,0.053572,-0.136963,7.348000,2693.141796

-0.396827,-0.025014,8.364067,16.885881,0.178719,-0.102575,-0.244347,7.340000,12.764456

-1.122518,-1.672787,11.537468,16.897646,-0.097869,-0.077528,-0.200648,7.324000,12.764456

-0.574059,0.372559,14.519267,16.865294,-0.188466,-0.085522,-0.163876,7.300000,12.764456

-0.284262,5.265584,10.244158,16.877058,0.014312,-0.023702,0.031708,7.328000,12.764456

0.074991,3.804622,7.183322,16.888823,-0.082414,-0.227813,0.170801,7.320000,12.764456

-1.232689,-2.436799,6.086403,16.877058,-0.130644,-0.114833,0.440195,7.248000,12.764456

-2.420619,-0.250146,9.300520,16.900587,0.105708,-0.088186,0.442859,7.324000,12.764456

-1.232689,-1.198573,12.442785,16.894705,-0.414959,-0.121494,0.448721,7.340000,12.764456

-0.598009,-0.458512,10.866862,16.888823,-0.422687,-0.221950,0.609931,7.340000,12.764456

0.688116,4.297997,9.525652,16.888823,0.452642,0.029590,0.354394,7.352000,12.764456

-1.977540,0.391720,7.147397,16.891764,0.396419,-0.107905,0.075408,7.364000,12.764456

1.061739,6.134976,10.639336,16.891764,-0.048307,-0.086854,-0.009061,7.352000,12.764456

0.189952,-1.955400,6.225314,16.906469,-0.163685,-0.048750,-0.126571,7.348000,12.764456

-1.196764,-2.889457,15.520386,16.888823,-0.208718,0.055171,-0.054893,7.340000,12.764456

1.593434,-0.513598,7.214457,16.885881,0.071867,-0.147607,-0.095661,7.348000,12.764456

-1.678163,-1.435680,10.833332,16.909410,-0.140503,0.110595,0.157478,7.344000,12.764456

-0.492628,8.589871,7.674301,16.900587,0.159001,0.018399,0.132697,7.340000,12.764456

-0.928522,-7.356168,5.217011,16.915293,-0.304378,-0.221418,0.019450,7.344000,12.764456

1.068924,-0.015434,12.603251,16.894705,-0.397906,-0.012777,0.166271,7.340000,12.764456

1.006654,0.976104,10.323193,16.894705,0.215757,0.083149,0.105251,7.340000,12.764456

0.403109,3.220237,8.150910,16.891764,0.234143,0.055703,0.045564,7.348000,12.764456

-3.081644,-1.976955,9.235854,16.900587,-0.235364,0.017066,-0.015989,7.352000,12.764456

-0.571664,3.502850,8.919712,16.900587,-0.039514,0.024527,-0.138029,7.352000,12.764456

-0.825536,-1.224919,11.609319,16.906469,0.052949,0.079152,-0.133499,7.364000,12.764456

-1.156049,0.944969,9.504096,16.909410,0.169393,0.134043,-0.150020,7.372000,12.764456

0.812657,2.628668,9.664562,16.915293,0.160599,0.034386,-0.090332,7.372000,12.764456

-0.732130,3.962693,1.598136,16.906469,0.317279,0.028524,-0.150020,7.368000,12.764456

-2.775082,-5.382672,15.024616,16.874117,-0.928166,0.163088,0.005594,7.364000,12.764456

3.257972,7.155255,9.583132,16.888823,0.052149,0.117256,-0.235554,7.356000,12.764456

0.894088,-8.465062,11.252460,16.897646,-0.012868,-0.103908,-0.259269,7.356000,12.764456

-0.700995,4.494388,9.547207,16.891764,-0.038981,0.162555,-0.149487,7.364000,12.764456

-3.378627,-1.838044,12.394885,16.885881,-0.122384,0.169749,-0.153217,7.368000,12.764456

-3.112780,0.291129,12.028447,16.894705,-0.636923,0.225973,-0.134831,7.344000,12.764456

4.175265,2.235884,10.325588,16.897646,0.008449,-0.270980,-0.340274,7.356000,12.764456

0.465380,-0.080099,9.319680,16.903528,0.168593,-0.144410,-0.284850,7.352000,12.764456

1.191071,3.648946,8.761641,16.882940,-0.164485,-0.007715,-0.025848,7.364000,14.784974

0.177977,2.681358,11.662009,16.897646,0.230146,-0.184646,0.035705,7.356000,14.784974

-3.608549,-3.342116,12.105087,16.900587,0.032431,-0.055411,0.073009,7.368000,14.784974

0.201927,1.859866,10.105247,16.900587,0.363644,-0.236872,0.086333,7.368000,14.784974

-2.710416,-2.575710,7.784472,16.891764,-0.057633,0.045311,0.186522,7.372000,14.784974

-1.357230,5.184154,8.469448,16.897646,-0.095737,0.016800,0.152149,7.376000,14.784974

1.061739,2.427486,6.333090,16.906469,0.077996,-0.167059,0.230489,7.376000,81.788215

-1.481771,-3.174465,8.620334,16.888823,-0.381119,-0.062073,0.385570,7.372000,81.788215

2.692748,1.589229,15.376684,16.891764,-0.107995,-0.115365,0.385303,7.352000,81.788215

1.334772,2.331685,11.106364,16.903528,0.811034,-0.227280,0.087132,7.368000,81.788215

-4.628827,-5.567089,9.228669,16.906469,0.033230,0.198261,0.402091,7.392000,81.788215

0.211507,12.000380,7.262358,16.885881,0.111837,0.101269,0.118841,7.388000,81.788215

-2.099686,-1.117143,8.366462,16.897646,0.190710,-0.548633,0.275521,7.388000,81.788215

1.083295,-0.944701,15.146763,16.888823,0.179785,-0.065004,0.214767,7.388000,81.788215

0.381554,2.171219,6.534272,16.891764,0.396685,0.031722,0.044498,7.396000,81.788215

0.252223,5.653578,11.930251,16.891764,0.232544,0.094341,-0.063686,7.388000,81.788215

-0.054340,-8.635109,11.269226,16.891764,0.102511,-0.171056,-0.227827,7.360000,81.788215

0.381554,3.912398,11.580578,16.882940,-0.186868,0.098604,-0.149753,7.376000,81.788215

1.071320,4.204591,4.670947,16.912352,0.491013,0.074889,-0.074078,7.372000,81.788215

-2.255363,0.746182,7.561735,16.891764,-0.839701,-0.011712,0.175597,7.364000,81.788215

-0.301027,-0.245356,11.384187,16.900587,0.347923,-0.033561,0.303766,7.372000,81.788215

-2.087711,-3.952846,11.542258,16.900587,-0.048840,-0.094581,0.303766,7.372000,81.788215

0.254618,-1.488371,8.553273,16.915293,0.034030,-0.188110,0.459380,7.384000,81.788215

-0.902177,5.102723,4.891288,16.894705,-0.437342,0.124451,0.477499,7.380000,81.788215

-0.849486,3.998619,9.403505,16.906469,0.419335,-0.169457,0.225692,7.376000,81.788215

-1.905690,-6.752624,9.978311,16.909410,-0.363532,-0.191307,0.277386,7.384000,81.788215

2.213744,1.594019,13.788786,16.903528,-0.217244,0.051174,0.149218,7.388000,81.788215

1.358722,1.663475,13.266672,16.903528,-0.034451,0.308310,0.040501,7.392000,81.788215

-0.818351,-0.592633,5.631349,16.897646,0.314082,-0.298159,-0.098060,7.388000,81.788215

-0.221991,-1.339880,12.617621,16.894705,-0.148231,0.043180,0.092461,7.396000,81.788215

-0.255521,-0.408217,11.223721,16.894705,-0.152494,0.203590,0.049028,7.380000,81.788215

1.622174,0.820428,8.141330,16.906469,0.406544,0.118855,0.000265,7.376000,21.046070

-2.578690,4.245306,5.243356,16.879999,0.113169,-0.000254,0.025313,7.384000,21.046070

-0.202831,6.776842,10.069321,16.874117,0.215491,-0.019972,-0.024516,7.388000,21.046070

-4.248019,-6.800524,12.473921,16.894705,-0.406699,-0.216621,0.056222,7.380000,21.046070

0.338444,3.380704,7.693461,16.897646,0.381497,0.114592,0.036504,7.400000,21.046070

-2.609826,-2.985258,10.948293,16.874117,-0.054702,-0.138281,0.126035,7.396000,21.046070

3.186122,3.442974,12.220049,16.885881,-0.135174,0.094074,0.223561,7.392000,21.046070

3.344193,1.891002,8.735295,16.871176,0.448645,-0.047151,0.221163,7.396000,21.046070

-3.903136,-3.442707,8.493398,16.888823,-0.137306,0.197728,0.425273,7.400000,21.046070

-1.520092,6.477464,9.918435,16.909410,0.188578,0.466589,0.235285,7.412000,21.046070

-1.898505,3.107671,6.107958,16.885881,0.434523,-0.295228,-0.014390,7.416000,21.046070

-3.210975,-5.703605,8.086245,16.894705,-0.689416,-0.057810,0.069812,7.412000,21.046070

-2.308053,-5.308427,14.648599,16.894705,-0.664901,0.425820,-0.017321,7.404000,21.046070

4.211190,5.375755,10.924343,16.897646,0.546171,0.128981,-0.366654,7.420000,21.046070

0.369579,0.303104,8.936477,16.894705,-0.251884,0.078086,-0.242482,7.408000,21.046070

-0.495023,-0.427377,9.025092,16.906469,0.089987,0.047976,-0.266197,7.384000,21.046070

-0.681835,-1.505136,11.367421,16.900587,-0.367263,0.283262,-0.207043,7.380000,21.046070

-0.473468,7.107355,9.082573,16.897646,0.035362,0.293654,-0.238485,7.388000,21.046070

-0.708180,-1.200969,7.794052,16.877058,0.147276,-0.133485,-0.387438,7.388000,21.046070

-1.498536,-0.401032,9.793894,16.882940,-0.574837,0.098604,-0.346936,7.384000,21.046070

3.816012,0.547396,12.061977,16.885881,0.073466,-0.041289,-0.349067,7.392000,25.399609

-0.135770,-3.172070,14.083374,16.897646,0.114501,0.134843,-0.395698,7.392000,25.399609

-0.988397,4.274046,7.715016,16.888823,0.226416,0.076754,-0.427407,7.404000,25.399609

0.103732,0.640802,7.113866,16.897646,-0.126914,-0.195837,-0.156415,7.396000,25.399609

-0.758475,3.028636,8.644284,16.894705,0.064939,0.044512,-0.078874,7.408000,25.399609

-2.058971,-6.601737,9.482541,16.903528,-0.328892,-0.215289,-0.066084,7.404000,25.399609

1.001864,3.435789,7.897038,16.888823,0.168060,0.164687,0.001065,7.400000,25.399609

-0.049550,-2.364948,10.157937,16.885881,-0.206586,0.000013,-0.095661,7.424000,25.399609

0.209112,8.216249,9.542417,16.882940,0.352186,0.025060,-0.197983,7.412000,62.642229

0.831818,-4.927619,6.615702,16.888823,-0.098402,-0.521721,-0.152418,7.404000,62.642229

-0.799191,-0.417797,10.953083,16.885881,0.199237,0.041314,-0.210773,7.436000,62.642229

-1.718878,1.376073,8.385622,16.891764,0.038027,-0.053813,-0.167073,7.416000,62.642229

0.580340,-0.417797,9.887300,16.874117,0.099846,-0.278707,-0.134831,7.440000,62.642229

-2.439779,-0.844111,9.482541,16.891764,-0.029921,0.032521,-0.055159,7.440000,62.642229

-1.132098,1.900582,10.857283,16.877058,0.162998,-0.154269,0.005594,7.452000,62.642229

-0.176486,-3.030763,14.543218,16.885881,-0.268938,-0.072998,0.286712,7.456000,62.642229

0.649796,0.645592,12.883469,16.879999,-0.074953,-0.000254,0.371447,7.456000,62.642229

-1.747618,5.282350,7.202482,16.897646,0.519791,-0.030630,0.193184,7.444000,62.642229

-4.195329,-2.824792,7.868298,16.879999,-0.134375,-0.164128,0.252072,7.428000,62.642229

1.162330,10.877115,4.105722,16.874117,0.121163,-0.244866,-0.037573,7.456000,62.642229

1.188675,-5.468893,7.992838,16.888823,-0.306243,-0.093516,0.267793,7.452000,62.642229

-1.805099,-5.653310,18.547689,16.865294,-0.008871,0.029857,0.386636,7.452000,62.642229

0.618661,6.010436,4.366779,16.862352,0.603727,0.017066,0.041567,7.464000,62.642229

1.535953,1.232371,2.273532,16.871176,-0.276399,-0.039424,0.001597,7.468000,62.642229

-1.848209,1.550909,11.285991,16.882940,-0.215379,0.288325,-0.012525,7.460000,62.642229

0.439034,0.921019,7.166557,16.871176,0.089188,0.102334,-0.104455,7.456000,62.642229

-1.038693,-1.747033,8.546088,16.871176,-0.277731,0.004543,-0.087135,7.460000,62.642229

-0.760870,-0.611794,16.521503,16.868235,0.040958,0.045844,-0.143358,7.472000,62.642229

2.194584,3.936348,9.250224,16.871176,0.091586,-0.097246,-0.231557,7.468000,62.642229

1.212626,4.877591,6.079218,16.879999,0.540308,-0.124159,-0.206510,7.476000,62.642229

-1.088988,-1.184203,9.714858,16.871176,-0.720592,0.099137,0.014121,7.468000,62.642229

2.077228,3.363939,13.731306,16.891764,0.335399,0.049841,0.005061,7.460000,62.642229

0.862953,-2.041620,11.422507,16.882940,0.205632,-0.087120,-0.122574,7.460000,62.642229

-3.826495,-0.389057,10.823752,16.879999,0.176054,0.106864,-0.184660,7.468000,62.642229

0.719252,7.574383,5.722360,16.865294,0.650890,0.056503,-0.269128,7.444000,19.294517

-1.886530,2.070628,5.298441,16.862352,0.385760,-0.253926,-0.241949,7.452000,19.294517

2.326310,-4.822238,9.705278,16.874117,-1.078984,0.234766,0.113512,7.436000,19.294517

4.630319,4.836876,9.108918,16.868235,0.188578,0.135642,-0.112981,7.456000,192.610100

-5.218002,-4.953964,9.358000,16.871176,-0.049639,-0.153470,-0.181729,7.448000,192.610100

-3.843261,-3.193625,13.460669,16.862352,-0.417624,0.094607,0.010657,7.444000,192.610100

1.864071,2.757999,8.651469,16.877058,0.012979,0.034120,-0.050096,7.460000,192.610100

0.894088,6.235568,7.140212,16.862352,0.298094,-0.034361,-0.079674,7.456000,192.610100

0.319283,-0.139975,12.584091,16.859411,-0.260145,0.057302,-0.014390,7.456000,192.610100

-0.880621,-0.626164,11.685959,16.859411,0.195506,-0.003451,-0.197983,7.456000,192.610100

-0.114215,-2.003300,7.432404,16.862352,0.125693,-0.095914,-0.209707,7.468000,192.610100

0.053436,3.385494,10.869258,16.877058,-0.184469,0.078886,-0.211040,7.464000,192.610100

0.719252,3.222633,7.679091,16.865294,0.450244,-0.197702,-0.223297,7.468000,192.610100

-1.163234,-2.156581,7.741362,16.862352,-0.266540,-0.062073,-0.225695,7.468000,192.610100

-2.506840,-1.632072,13.743281,16.856470,-0.108261,0.120187,-0.202246,7.464000,192.610100

0.625846,0.844378,11.250066,16.853529,0.221353,-0.175586,-0.275790,7.468000,192.610100

1.238971,1.577254,6.392965,16.850588,-0.042445,-0.124425,-0.130035,7.468000,192.610100

0.798287,1.548514,10.423784,16.856470,-0.169814,-0.084456,0.011989,7.464000,192.610100

-0.451913,2.626273,12.370934,16.859411,-0.251884,-0.014376,-0.046632,7.464000,192.610100

0.053436,4.628509,10.905183,16.844706,0.726566,-0.344257,-0.289913,7.468000,192.610100

-0.997977,-5.447338,7.473119,16.859411,-0.350209,-0.146275,-0.069282,7.468000,192.610100

-1.055458,-1.627282,12.715817,16.862352,-0.143967,0.335755,0.002130,7.468000,192.610100

-1.591942,3.644156,4.915238,16.847647,0.552299,-0.298958,-0.278988,7.476000,192.610100

-1.826654,-2.115866,6.589357,16.856470,-0.424286,-0.039957,0.122038,7.472000,192.610100

0.187557,1.883817,10.950688,16.841763,-0.228436,-0.087653,0.209705,7.472000,192.610100

1.301241,4.990157,8.445498,16.853529,0.497941,-0.317078,0.149484,7.480000,192.610100

-2.176327,-4.977914,6.807304,16.847647,-0.217511,-0.276309,0.383705,7.480000,192.610100

0.589921,3.735167,11.511123,16.856470,-0.006473,-0.120162,0.564100,7.480000,192.610100

-1.005162,2.046678,9.528047,16.865294,-0.064028,0.128981,0.618991,7.476000,192.610100

-5.632340,-3.430732,10.275292,16.856470,0.169926,-0.272845,0.468706,7.480000,192.610100

-1.005162,2.777159,8.752060,16.853529,-0.177009,-0.359445,0.521199,7.480000,192.610100

2.505936,-0.937516,8.740085,16.853529,-0.267073,-0.162796,0.680277,7.480000,192.610100

3.296293,6.216407,11.863191,16.841763,0.258125,-0.108970,0.693601,7.484000,192.610100

-2.585875,-2.913408,10.342353,16.847647,-0.193263,-0.145742,0.710121,7.480000,192.610100

-2.851722,1.356912,8.689790,16.844706,0.242137,0.044246,0.635512,7.488000,192.610100

1.176700,-1.818883,9.935200,16.835880,-0.379786,-0.032762,0.732771,7.492000,16.065921

2.896324,5.109908,8.011999,16.835880,0.316214,-0.014376,0.746893,7.484000,16.065921

-5.486244,-4.728832,5.882826,16.850588,0.262921,0.138040,0.733303,7.484000,16.065921

-1.278195,-1.907499,8.016789,16.838821,0.366575,-0.443381,0.265928,7.484000,16.065921

-0.715365,-2.482304,3.978786,16.847647,-0.450665,0.254218,0.234219,7.488000,16.065921

0.999469,4.429723,8.323352,16.844706,-0.308108,0.485241,0.006927,7.480000,16.065921

2.292779,-0.575868,10.344748,16.838821,-0.029655,0.029590,-0.272326,7.492000,16.065921

1.998192,-4.561181,9.183164,16.832939,-0.097603,0.024794,-0.288580,7.480000,16.065921

-0.207621,2.925650,6.790539,16.844706,0.197904,0.349345,-0.244614,7.488000,16.065921

-1.766779,-0.393847,10.881232,16.827057,-0.426151,0.334690,-0.154816,7.492000,16.065921

-0.911757,-0.887221,10.205837,16.829998,-0.468518,0.027458,-0.144690,7.484000,16.065921

1.243761,7.021134,11.688354,16.815292,0.286903,-0.076728,-0.178265,7.488000,16.065921

-0.681835,-3.972006,6.419311,16.850588,0.014578,-0.216888,-0.009860,7.492000,16.065921

-2.648146,0.379744,9.551997,16.829998,-1.183171,0.016001,0.395695,7.488000,16.065921

0.261803,-4.024696,18.068686,16.838821,0.260256,0.005875,0.424207,7.476000,16.065921

-0.233966,-1.672787,15.752703,16.850588,-0.216178,-0.140679,0.351196,7.492000,16.065921

2.867584,0.659962,10.433364,16.824116,0.193108,-0.146808,0.359190,7.500000,31.191447

-3.747460,5.265584,5.030200,16.841763,0.469163,0.122319,0.209438,7.488000,31.191447

-4.530631,-3.600778,15.333574,16.812351,-0.681688,0.022129,0.436464,7.492000,31.191447

5.526056,4.463253,10.569880,16.832939,0.780125,-0.554496,0.059153,7.492000,31.191447

-1.644633,1.150941,4.175178,16.821175,0.666345,0.045578,0.048761,7.508000,31.191447

-1.546437,-1.596147,7.116261,16.821175,-0.591624,0.325097,0.375178,7.504000,31.191447

0.479750,3.208262,14.588723,16.835880,0.360180,0.208653,0.085267,7.512000,31.191447

3.691471,10.175374,-4.446893,16.824116,1.338364,-0.124425,-0.570764,7.516000,31.191447

-2.722391,-6.606527,12.893049,16.835880,-1.183171,0.188135,0.124437,7.516000,65.390055

4.398002,4.681200,14.308506,16.821175,0.579745,0.527076,0.343469,7.516000,65.390055

-6.101764,-4.273778,8.459867,16.824116,0.283972,-0.037026,0.006927,7.524000,65.390055

0.573155,14.656456,1.976550,16.812351,0.089720,-0.421531,-0.023716,7.516000,65.390055

4.376447,-4.680932,12.023657,16.827057,-0.667566,-0.078061,0.433000,7.504000,65.390055

-0.020809,6.812767,12.057187,16.832939,-0.058433,0.282996,0.389300,7.500000,65.390055

-6.693334,-13.401197,15.678456,16.832939,-0.107462,-0.346921,0.212369,7.508000,65.390055

1.346747,3.095696,11.441668,16.821175,0.125959,-0.304820,0.173466,7.512000,65.390055

3.092716,7.665394,9.331655,16.818233,-0.141835,-0.013310,0.409285,7.512000,65.390055

4.170475,6.295443,12.505055,16.821175,0.702051,-0.052747,0.309895,7.500000,65.390055

1.550323,2.350845,6.507926,16.821175,0.310884,-0.165194,0.058087,7.508000,65.390055

0.331258,-7.066371,7.475514,16.821175,-0.010736,-0.198768,0.153215,7.524000,65.390055

2.503541,5.739799,8.059899,16.809410,0.506201,0.392778,0.246743,7.532000,65.390055

-1.462611,7.813886,11.077624,16.812351,-0.316901,0.405036,0.115643,7.524000,65.390055

0.774337,-2.688276,10.126801,16.809410,-0.151695,-0.279773,0.073276,7.516000,65.390055

0.654586,-9.959555,5.739125,16.827057,0.193641,0.026926,0.298170,7.536000,33.014594

0.901273,12.544049,8.241920,16.794704,1.358615,0.600619,0.228091,7.548000,33.014594

-4.351005,6.077496,12.129038,16.812351,-0.246022,0.132178,0.242480,7.544000,33.014594

-2.128427,-0.252541,9.307705,16.797646,-0.422420,0.046377,0.294706,7.548000,33.014594

2.757413,0.772528,11.482383,16.818233,0.603460,0.100736,0.285913,7.552000,33.014594

-1.124913,3.162757,11.662009,16.809410,0.152073,0.108996,0.224627,7.552000,33.014594

-2.221832,-0.865666,8.555669,16.809410,-0.362733,0.036785,0.291775,7.540000,33.014594

1.310822,-0.887221,13.599580,16.815292,-0.363532,0.181740,0.432467,7.540000,33.014594

3.497474,3.203472,7.123446,16.812351,0.068403,0.002677,0.366651,7.544000,33.014594

-1.932035,-1.442865,12.773298,16.809410,-0.904984,0.604350,0.345334,7.532000,33.014594

2.802919,-2.930173,12.416440,16.803528,0.360979,-0.051414,0.065282,7.536000,50.960016

-1.273405,-1.751823,7.377318,16.812351,-0.130111,0.310708,-0.079141,7.532000,50.960016

0.910853,4.551868,6.898314,16.809410,0.145145,0.484442,-0.201713,7.544000,50.960016

0.740807,2.185589,10.042975,16.800587,-0.259612,0.365066,-0.251275,7.540000,50.960016

-0.152535,-3.011603,13.000825,16.800587,-0.066427,0.272604,-0.429272,7.540000,50.960016

0.369579,3.198682,7.101892,16.806469,0.170192,0.333890,-0.579824,7.548000,50.960016

-0.078290,3.548355,7.006091,16.806469,-0.004607,0.208653,-0.598210,7.548000,50.960016

-1.215924,2.738839,11.832055,16.809410,0.183515,0.276068,-0.617395,7.544000,50.960016

-0.945287,-4.436640,11.496753,16.809410,0.170192,0.070625,-0.712788,7.552000,50.960016

-0.190856,2.803504,9.338840,16.832939,-0.067759,0.328028,-0.601674,7.564000,50.960016

2.862794,4.336317,6.742639,16.806469,-0.163685,0.112993,-0.427407,7.556000,50.960016

0.367184,-4.834213,9.757969,16.809410,-0.020595,0.034120,-0.266997,7.556000,50.960016

0.355209,6.132582,12.857123,16.803528,0.323142,0.223042,-0.264865,7.560000,50.960016

-0.576454,0.166588,7.645561,16.788822,0.091586,-0.037292,-0.223830,7.560000,50.960016

-0.406408,-0.511203,7.535390,16.797646,0.043622,-0.010646,-0.020252,7.560000,50.960016

-2.111661,0.650382,12.495476,16.797646,-0.150096,0.006674,0.114578,7.560000,50.960016

-0.619564,1.486243,14.943186,16.797646,0.395353,0.114858,0.186256,7.564000,50.960016

-1.266220,-2.752941,9.326865,16.794704,-0.208718,-0.070333,0.054623,7.564000,50.960016

-2.688861,4.420143,6.697133,16.794704,0.194174,0.244359,-0.108452,7.572000,50.960016

-0.107030,-0.111235,8.998747,16.803528,0.070002,-0.189975,-0.231024,7.568000,50.960016

1.353932,-0.535153,11.570998,16.797646,0.013246,-0.142811,-0.289913,7.576000,50.960016

0.807867,0.669542,9.595107,16.809410,0.241071,-0.079659,-0.302969,7.576000,50.960016

-1.582362,-0.535153,4.769143,16.806469,0.408410,0.017066,-0.323753,7.580000,50.960016

-0.962052,-1.354250,12.658337,16.797646,-0.623067,0.158558,-0.097527,7.572000,50.960016

-0.849486,1.043165,10.869258,16.788822,0.137417,0.584631,0.013855,7.580000,50.960016

-1.251849,4.297997,6.081613,16.800587,0.018841,0.321100,-0.274991,7.580000,50.960016

-1.515302,-2.829582,11.899116,16.788822,0.223485,0.013336,-0.224629,7.580000,50.960016

-1.273405,4.451278,11.721885,16.800587,-0.189532,0.333357,-0.244347,7.584000,50.960016

2.697538,1.558094,8.016789,16.779999,0.076664,-0.056211,-0.414350,7.588000,50.960016

0.575550,-3.236735,11.539863,16.788822,-0.193796,-0.022104,-0.472439,7.576000,50.960016

-0.418383,5.064403,9.362790,16.791763,0.489148,0.169216,-0.616595,7.584000,50.960016

0.824632,-0.413007,2.417233,16.782940,-0.066960,-0.424195,-0.655765,7.580000,50.960016

-1.965565,-10.242167,9.858560,16.803528,-0.081348,0.003743,-0.243015,7.576000,50.960016

-0.677045,4.927886,12.641572,16.771175,0.038560,0.267275,-0.325619,7.576000,50.960016

-0.595614,1.294642,6.074428,16.785881,0.467298,0.073823,-0.337609,7.584000,15.500754

-0.732130,-2.573315,12.979270,16.794704,-0.064028,-0.045819,-0.096727,7.580000,15.500754

-4.626432,-4.508490,18.811142,16.791763,-0.386448,0.263544,-0.228360,7.580000,15.500754

0.982704,13.511637,5.842111,16.788822,1.342893,0.053305,-0.499618,7.588000,15.500754

-3.424132,-3.473842,3.705754,16.797646,-0.304910,-0.637898,-0.354130,7.588000,15.500754

1.655704,8.386295,9.343630,16.762352,-0.182871,0.079152,0.045297,7.592000,15.500754

-1.929640,-3.742084,6.385780,16.785881,0.481687,-0.118297,-0.008528,7.592000,15.500754

-4.729418,1.967642,13.166081,16.779999,-0.366996,-0.189975,-0.053294,7.584000,15.500754

1.351537,-10.448138,13.786391,16.785881,0.107307,-0.279773,-0.010926,7.592000,15.500754

2.335890,3.756722,10.682446,16.779999,0.260523,-0.050349,0.252872,7.600000,15.500754

-0.856671,5.629627,10.548325,16.774117,-0.076019,0.071158,0.361322,7.592000,15.500754

-2.130822,-0.429772,10.871653,16.777058,0.488615,-0.347188,0.265395,7.588000,15.500754

-4.554582,3.066956,11.930251,16.779999,0.352186,0.043713,0.079138,7.600000,15.500754

-1.124913,1.426368,6.397756,16.791763,-0.401103,-0.107105,0.057288,7.596000,15.500754

1.770665,0.518656,8.895761,16.777058,-0.167416,-0.329868,0.015986,7.596000,15.500754

2.086808,0.504285,8.776011,16.774117,0.124627,0.111927,0.137760,7.588000,15.500754

-0.684230,-5.006654,5.042174,16.765293,-0.010736,-0.082591,-0.094329,7.596000,15.500754

1.322797,1.265902,8.282637,16.785881,-0.312904,0.164154,0.062084,7.592000,15.500754

1.054554,5.818834,6.052873,16.777058,0.445181,0.077287,-0.211839,7.596000,15.500754

-0.516578,3.672896,1.964575,16.774117,-0.112791,-0.062606,-0.200115,7.600000,15.500754

-0.140560,-6.824474,21.843237,16.777058,-0.947884,-0.108437,0.024247,7.596000,15.500754

3.231627,8.680882,15.786233,16.771175,0.193374,0.178543,-0.244081,7.604000,25.031302

-0.471073,-7.725001,11.082415,16.774117,0.131022,-0.081258,-0.351732,7.604000,25.031302

1.605409,1.914952,15.632952,16.774117,-0.146632,-0.115898,-0.266464,7.604000,25.031302

3.638781,6.671461,9.487331,16.791763,-0.026724,-0.090584,-0.237153,7.608000,25.031302

-1.326095,6.640326,10.850098,16.779999,0.087322,0.284328,-0.232890,7.600000,25.031302

-2.231412,-7.945343,8.579618,16.788822,-0.231900,-0.443647,-0.351732,7.600000,25.031302

0.283358,-2.460749,11.257251,16.782940,-0.139704,-0.039157,-0.189723,7.604000,87.905090

0.649796,4.666830,11.690749,16.765293,0.336731,0.313639,-0.191055,7.612000,87.905090

1.377882,2.573582,1.181403,16.782940,0.415604,-0.181448,-0.282185,7.608000,87.905090

-0.633934,-8.196820,7.080336,16.777058,-0.068025,-0.414070,-0.182528,7.608000,87.905090

0.486935,12.311732,9.935200,16.774117,0.922682,0.467122,-0.275790,7.612000,87.905090

-1.886530,-7.071161,9.987890,16.765293,-0.393642,-0.449243,-0.260335,7.612000,87.905090

-0.648305,-1.090798,11.039304,16.777058,-0.146632,0.097005,-0.117511,7.608000,87.905090

-1.783544,4.408167,9.573552,16.774117,0.479555,0.162288,-0.118577,7.612000,87.905090

-2.430199,-2.360158,12.540981,16.779999,-0.641453,-0.256857,-0.234755,7.604000,87.905090

0.918038,2.350845,19.869741,16.779999,-0.297982,-0.211026,-0.277122,7.608000,87.905090

2.671193,3.510035,12.038027,16.794704,0.420400,-0.087920,-0.270727,7.612000,87.905090

-1.424291,0.995264,12.885864,16.777058,-0.543927,-0.243800,-0.171337,7.612000,87.905090

5.811063,1.680240,7.463539,16.779999,0.487815,-0.370637,0.028777,7.604000,87.905090

-3.780990,-10.996598,4.534431,16.771175,-0.341949,-0.169990,0.037303,7.608000,87.905090

1.119220,5.972115,9.951965,16.777058,-0.307575,0.213716,0.150017,7.584000,35.608826

2.153868,5.984090,11.214140,16.765293,0.440652,-0.232076,0.037303,7.588000,35.608826

-1.917665,-0.250146,3.724914,16.759411,0.588272,-0.296027,0.171867,7.592000,35.608826

-4.056417,-0.796210,13.611555,16.765293,-0.420022,-0.287767,0.138026,7.596000,35.608826

-1.500932,-4.427060,11.772180,16.765293,0.066538,-0.014376,0.261931,7.608000,35.608826

-2.109267,0.386930,8.122169,16.762352,0.138750,-0.048750,0.031708,7.616000,35.608826

-1.860184,1.040770,9.274175,16.779999,0.301558,-0.031963,-0.157747,7.620000,35.608826

-6.228700,-7.056791,13.963623,16.771175,-0.239361,-0.049549,-0.119110,7.616000,35.608826

0.970729,0.545001,8.749665,16.750587,-0.343281,0.207321,-0.059156,7.616000,35.608826

2.869979,-0.168715,-3.081732,16.765293,-0.541529,-0.477222,0.029842,7.616000,35.608826

-2.894833,-3.960031,11.154264,16.765293,-1.226604,0.369330,0.302434,7.600000,35.608826

1.279686,0.382139,15.285673,16.771175,0.535246,0.088212,0.069012,7.604000,35.608826

-3.776200,-3.358881,10.577065,16.771175,-0.126914,-0.413537,-0.159879,7.604000,35.608826

2.079623,-4.750387,6.747428,16.753529,-0.374990,-0.172122,0.062617,7.604000,35.608826

0.848583,10.537023,4.206313,16.762352,0.584275,0.392778,-0.010393,7.616000,35.608826

0.019906,-2.293097,16.327507,16.756470,-0.831174,-0.362909,0.139092,7.616000,35.608826

-0.348927,6.479859,11.051279,16.771175,0.317812,0.071691,0.166005,7.620000,35.608826

-0.121400,-5.155146,2.766906,16.747646,0.223751,-0.363708,-0.133765,7.612000,35.608826

-5.251532,3.134017,12.790063,16.741764,0.054014,0.316304,0.067947,7.608000,35.608826

1.682050,-0.992602,5.638535,16.759411,0.104109,-0.463365,-0.067150,7.616000,35.608826

-3.778595,-3.478632,3.032753,16.741764,-0.032852,0.124451,0.077273,7.612000,25.658117

-5.064721,0.379744,13.472644,16.762352,-0.647315,0.149232,0.115377,7.616000,25.658117

-2.082921,-1.723083,8.847861,16.762352,-0.239094,0.153762,0.252339,7.616000,25.658117

0.594711,2.372401,11.935041,16.750587,0.119564,-0.043687,0.285380,7.616000,25.658117

2.869979,-0.527968,7.430009,16.753529,0.463567,-0.154802,0.416213,7.628000,25.658117

-4.322265,4.053705,7.956913,16.756470,-0.162886,0.085014,0.399426,7.624000,25.658117

-0.202831,0.262388,5.827741,16.756470,0.386027,-0.174254,0.395429,7.632000,25.658117

-2.252968,-3.612753,7.734177,16.747646,-0.211116,0.005076,0.316290,7.628000,25.658117

-0.868646,3.129227,13.870217,16.750587,-0.463456,0.076754,0.173199,7.632000,25.658117

-0.914152,-5.411413,16.581379,16.744705,-0.465854,0.256083,0.162274,7.636000,25.658117

5.949975,9.940662,5.123605,16.741764,0.831019,0.223042,-0.139361,7.632000,25.658117

-2.439779,3.311248,2.201681,16.756470,0.106241,0.015201,-0.186259,7.632000,25.658117

0.201927,-7.698656,7.829977,16.744705,-0.915909,0.011471,-0.033842,7.628000,25.658117

-2.552345,0.372559,16.483183,16.747646,-0.202322,0.637125,-0.100991,7.632000,25.658117

6.462509,3.189102,12.569721,16.732941,-0.089076,-0.235274,-0.524666,7.632000,25.658117

1.885626,0.248018,4.850573,16.732941,0.410008,0.044246,-0.411952,7.640000,25.658117

-2.633776,-1.373410,2.824386,16.744705,0.096382,0.174812,-0.409288,7.640000,25.658117

-5.368888,5.986485,7.518625,16.759411,-0.684886,0.393578,-0.450056,7.628000,25.658117

7.269630,-4.053437,16.466417,16.741764,0.136351,-0.512927,-0.610200,7.632000,25.658117

3.097506,8.723992,5.913961,16.747646,0.704183,0.049575,-0.483631,7.644000,26.395622

-5.701796,4.580609,-1.069915,16.730000,0.512596,0.110062,-0.348801,7.620000,26.395622

-4.521051,-10.898402,20.521187,16.738823,-1.812022,-0.373301,0.275521,7.616000,26.395622

5.947579,4.999737,10.052556,16.732941,1.374336,0.119388,0.295239,7.644000,26.395622

-6.722074,-8.637504,8.349697,16.712351,-0.188200,-0.399681,0.205441,7.636000,26.395622

0.185162,10.117894,8.558064,16.709410,0.077730,0.353875,0.477233,7.648000,26.395622

-0.207621,-0.197455,8.263476,16.730000,0.015644,-0.574747,0.370914,7.648000,26.395622

-6.425092,-1.208153,13.369658,16.715292,-0.617737,0.160690,0.538519,7.636000,26.395622

3.825592,2.108948,12.354170,16.709410,-0.034185,-0.112434,0.199313,7.652000,26.395622

3.286713,1.852681,7.492280,16.724117,-0.050972,-0.133751,0.206241,7.648000,26.395622

-0.399222,-4.252223,16.988533,16.732941,-0.407499,-0.135084,0.097790,7.652000,26.395622

3.969293,1.000055,11.333891,16.730000,0.736958,-0.053013,-0.127370,7.652000,26.395622

-5.289852,-0.068124,9.506492,16.727058,0.655420,0.184938,-0.221432,7.660000,26.395622

1.471288,4.369847,5.303232,16.738823,-0.523143,0.150831,-0.039438,7.656000,26.395622

0.877323,4.645274,11.733860,16.724117,-0.183137,0.340552,-0.147622,7.660000,26.395622

-0.142955,1.256322,10.708791,16.727058,0.347123,-0.194238,-0.363190,7.660000,26.395622

-0.693810,-2.922987,5.121210,16.721176,-0.176742,-0.303222,-0.363989,7.648000,26.395622

2.074833,-5.210231,13.233142,16.718235,-0.575370,0.164953,0.156146,7.640000,26.395622

2.829264,-0.302836,16.720289,16.724117,0.469696,0.107397,0.081803,7.656000,26.395622

-1.601522,1.572464,6.802514,16.718235,0.664214,0.103400,-0.028779,7.660000,27.214063

0.168397,5.641603,3.468647,16.715292,0.101711,-0.454306,0.103653,7.656000,27.214063

-1.785939,1.050350,6.910290,16.721176,-0.548724,0.132445,0.306430,7.644000,27.214063

-3.163075,-4.048646,16.784956,16.732941,0.070535,0.087412,0.316023,7.660000,27.214063

0.235458,-1.509926,8.196416,16.724117,-0.021394,-0.018107,0.270991,7.660000,27.214063

-3.316356,-0.180690,4.493715,16.709410,-0.240160,0.073823,-0.051162,7.660000,27.214063

-0.358507,-3.167279,10.488449,16.700586,-0.307309,0.240362,0.145754,7.664000,27.214063

1.660494,-1.711108,10.414204,16.718235,-0.219110,0.155094,0.279784,7.660000,76.096381

-0.130980,5.893080,16.487972,16.718235,0.732694,0.170549,-0.052761,7.664000,76.096381

-0.207621,2.757999,2.644760,16.706469,0.147010,-0.137748,-0.148421,7.664000,76.096381

1.023419,-3.754059,3.523732,16.712351,-0.819450,-0.092183,0.167071,7.664000,76.096381

-5.012030,-3.112194,9.494516,16.721176,-0.157024,0.490037,-0.051162,7.664000,76.096381

-0.320187,0.351004,15.211428,16.715292,-0.122384,-0.205963,-0.108185,7.660000,76.096381

0.422269,9.116776,9.971126,16.721176,1.055913,0.098604,-0.244614,7.664000,76.096381

-2.818192,-5.203046,9.714858,16.718235,-0.385915,-0.159065,-0.477769,7.664000,76.096381

6.955883,1.862262,12.617621,16.727058,-0.011269,0.139639,-0.055426,7.664000,76.096381

1.329982,1.708980,5.935517,16.703527,0.427328,0.259281,-0.270994,7.668000,76.096381

-4.374955,8.041412,6.009762,16.718235,-0.138638,0.403437,-0.239018,7.668000,76.096381

0.551600,-5.186281,15.319203,16.694704,-0.378454,-0.181715,-0.004531,7.668000,76.096381

1.306031,2.211934,10.514794,16.721176,0.443583,0.062631,-0.070880,7.672000,44.247924

-2.475704,-5.586249,10.708791,16.709410,-0.486638,-0.196370,0.010657,7.672000,44.247924

-6.003568,-7.298688,9.017907,16.738823,-0.396840,-0.034361,0.007726,7.672000,44.247924

0.934803,6.115817,8.297007,16.688822,-0.020329,0.363468,0.025846,7.680000,44.247924

-0.384852,1.007240,9.405901,16.703527,-0.577768,-0.058609,-0.207576,7.676000,44.247924

3.547770,4.173456,9.032277,16.709410,0.323674,-0.182248,-0.243015,7.672000,44.247924

-0.763265,-4.412690,14.195940,16.724117,0.050817,-0.026633,-0.113781,7.680000,44.247924

1.337167,-2.992443,14.873730,16.724117,-0.506889,0.134043,-0.083404,7.676000,44.247924

4.199215,2.638248,8.924501,16.703527,0.611454,0.195063,-0.017854,7.680000,44.247924

-2.437384,5.385335,4.230263,16.715292,0.282106,0.294720,-0.196118,7.680000,44.247924

-3.084039,2.434671,10.965058,16.709410,-0.409097,0.051440,-0.091132,7.672000,44.247924

1.377882,1.014425,11.415322,16.697645,0.060676,-0.112434,-0.202513,7.676000,44.247924

1.413807,3.862103,5.463698,16.712351,0.695923,-0.095647,-0.381842,7.684000,44.247924

-4.418066,-7.408859,14.849780,16.697645,-0.619070,-0.182780,-0.265132,7.680000,44.247924

5.842198,2.413116,11.743440,16.706469,0.052949,0.005342,-0.158813,7.684000,44.247924

-0.442333,5.485926,3.305785,16.694704,0.141414,0.221177,-0.393566,7.684000,44.247924

-1.227899,-5.844911,9.781919,16.688822,-0.154892,-0.243267,-0.367986,7.684000,44.247924

-0.346532,4.669225,13.216376,16.700586,-0.385649,0.243027,-0.237686,7.684000,44.247924

3.169357,-2.381713,10.459709,16.712351,0.172057,-0.359179,-0.362657,7.684000,44.247924

-2.791847,-1.402150,3.262675,16.706469,-0.111192,-0.066336,-0.425808,7.688000,28.422670

0.944383,0.494705,17.534597,16.685881,-0.648381,-0.215289,-0.134032,7.684000,28.422670

-2.092501,8.494071,11.856006,16.697645,0.662082,0.385051,-0.135897,7.692000,28.422670

4.920116,3.718402,10.854887,16.706469,0.302091,-0.515592,-0.212372,7.696000,28.422670

-4.403695,5.897870,11.254856,16.703527,0.052416,-0.015708,0.123904,7.696000,28.422670

-1.781149,-2.388898,4.534431,16.697645,-0.218044,-0.723166,0.071677,7.696000,28.422670

-0.039970,5.919425,8.979588,16.712351,0.193374,-0.158532,0.347732,7.692000,28.422670

-0.298632,-2.599660,16.497553,16.706469,0.063341,-0.421531,0.365585,7.700000,28.422670

1.322797,-0.027409,11.094389,16.677057,0.701518,-0.454306,0.432734,7.696000,28.422670

-6.724469,-2.820002,7.667116,16.694704,-0.136773,-0.123626,0.610464,7.696000,28.422670

-0.104635,2.925650,2.651945,16.694704,0.237074,-0.302156,0.446057,7.692000,28.422670

-2.451754,7.859390,4.072192,16.694704,0.224284,-0.305353,0.481230,7.696000,28.422670

4.041144,-9.751188,17.786074,16.694704,-1.031820,-0.880912,0.552908,7.696000,28.422670

-0.274681,6.295443,18.564455,16.682940,0.348722,0.432748,0.287778,7.696000,28.422670

3.705841,0.176168,8.086245,16.694704,0.278376,-0.811898,-0.123373,7.696000,28.422670

-1.714088,1.807176,9.300520,16.694704,-0.330757,-0.071932,0.197447,7.696000,28.422670

0.798287,2.087393,9.257409,16.682940,0.579478,0.150564,0.013855,7.700000,28.422670

-0.923732,-2.053595,8.507768,16.697645,0.066538,-0.467629,-0.077009,7.708000,29.066779

-0.150140,5.342225,10.351933,16.694704,-0.624665,0.183339,0.070611,7.704000,29.066779

2.934645,-4.089362,7.204877,16.691763,0.037760,-0.245133,0.053824,7.704000,29.066779

0.201927,1.285062,10.998589,16.694704,-0.183404,0.025860,0.211570,7.704000,29.066779

0.237853,-0.798605,16.317926,16.688822,0.573616,-0.043954,0.326682,7.708000,29.066779

-1.421896,4.966207,-0.890289,16.697645,0.428661,-0.109503,0.284314,7.708000,29.066779

1.943107,1.744905,9.523256,16.688822,-0.095205,-0.261653,0.501748,7.708000,29.066779

-0.166906,-2.508649,9.750783,16.682940,-0.031786,-0.103641,0.557172,7.704000,29.066779

-0.930917,-4.661771,13.491804,16.691763,-0.387247,-0.025035,0.597940,7.712000,66.475999

1.638939,6.192457,9.425060,16.688822,0.426263,0.128981,0.338140,7.704000,66.475999

1.028209,3.378309,9.489726,16.703527,0.115567,-0.320808,0.266728,7.708000,66.475999

-0.413593,0.535421,15.647322,16.694704,0.342593,0.390647,0.502280,7.708000,66.475999

0.204322,-1.131513,5.487648,16.682940,0.189111,-0.076995,0.074342,7.712000,66.475999

1.119220,1.711375,7.255173,16.685881,-0.065894,0.102334,0.289643,7.716000,66.475999

-0.305817,0.209698,10.823752,16.674116,-0.114123,0.271805,0.120440,7.712000,66.475999

1.215021,-0.820160,10.864468,16.694704,0.369240,0.245691,0.027711,7.712000,66.475999

-0.001649,-1.006972,10.725556,16.685881,-0.038981,-0.026633,-0.160678,7.720000,66.475999

1.581459,4.875196,9.942385,16.668234,0.317013,0.344549,-0.120442,7.716000,53.492869

1.658099,2.535262,2.740561,16.685881,0.138483,0.125783,-0.219833,7.720000,53.492869

-1.862579,-5.260526,13.340918,16.679998,-0.243358,0.055437,-0.086868,7.720000,53.492869

5.542821,10.996866,10.069321,16.668234,0.630906,0.548659,0.010124,7.720000,53.492869

-3.769015,-4.343234,8.225156,16.668234,-0.343548,0.046910,-0.066350,7.720000,53.492869

-1.759594,3.727982,9.022697,16.668234,-0.335287,0.168417,0.057821,7.720000,53.492869

3.257972,-2.525414,17.208874,16.671175,0.483286,-0.054878,0.209438,7.720000,53.492869

-1.345255,0.190538,5.662485,16.659410,0.125160,0.200393,0.078872,7.724000,53.492869

-0.039970,3.996224,1.396955,16.674116,-0.204188,0.230769,-0.038372,7.720000,53.492869

-4.803663,9.303587,9.293335,16.674116,-0.291587,0.458861,-0.307233,7.720000,53.492869

0.997074,-9.952370,11.544653,16.685881,-0.446402,-0.510529,-0.442596,7.724000,53.492869

2.053277,4.858431,10.783037,16.671175,-0.077085,0.615808,-0.097793,7.728000,29.794230

0.580340,3.004686,9.008327,16.682940,-0.118387,0.295786,-0.241416,7.720000,29.794230

-0.111820,4.465648,12.778088,16.665293,-0.079750,0.260880,-0.323753,7.724000,29.794230

2.836449,2.678963,10.057346,16.671175,0.319145,-0.268048,-0.445793,7.720000,29.794230

-0.715365,-1.960190,9.130473,16.682940,-0.143701,0.115658,-0.219033,7.724000,122.188253

-2.880463,-1.629677,11.535073,16.665293,0.307420,0.192665,-0.251808,7.720000,122.188253

-1.220714,4.355477,9.731624,16.659410,-0.194861,0.084481,-0.000001,7.724000,122.188253

-0.614774,2.156849,5.030200,16.668234,-0.034451,0.031988,-0.002133,7.720000,122.188253

1.629359,1.900582,12.344589,16.682940,-0.191131,0.335755,0.187055,7.720000,122.188253

-4.209699,2.417906,13.760046,16.662352,-0.110926,0.208386,-0.100991,7.720000,122.188253

0.268988,-4.292939,8.950847,16.659410,0.033230,-0.390355,-0.144424,7.724000,122.188253

1.852096,7.411522,14.538427,16.665293,0.081460,0.054371,-0.215037,7.724000,122.188253

3.684286,2.870565,9.072993,16.668234,0.455307,-0.220885,-0.345603,7.724000,122.188253

-2.264943,-3.186440,13.000825,16.671175,-0.382984,-0.158799,-0.167073,7.724000,122.188253

0.685721,5.998460,9.779524,16.653528,0.372171,0.094341,-0.189989,7.728000,122.188253

0.125287,-0.535153,12.330219,16.641764,-0.288656,-0.143344,-0.128436,7.724000,122.188253

0.367184,2.358031,9.559182,16.653528,0.408410,-0.099378,-0.124706,7.720000,122.188253

-1.778754,-4.587526,6.955795,16.677057,-0.020595,-0.090052,-0.090599,7.728000,122.188253

-3.352282,-0.549523,7.544970,16.650587,0.016177,-0.245399,-0.032510,7.728000,38.245733

-1.232689,-1.083612,9.585527,16.674116,-0.066960,0.180408,0.130032,7.728000,38.245733

-2.272128,-1.507531,9.798684,16.644705,-0.210849,0.018399,-0.015989,7.728000,38.245733

1.121615,-1.394965,4.977509,16.659410,-0.151961,-0.101243,0.128167,7.732000,38.245733

-0.365692,4.060890,8.011999,16.653528,-0.269737,0.127915,0.037836,7.724000,38.245733

-0.545319,1.984407,9.896879,16.644705,0.396152,-0.080192,-0.145756,7.724000,38.245733

-4.195329,-7.392094,9.166399,16.647646,-0.274534,-0.053813,-0.190522,7.732000,38.245733

-1.433871,1.206026,10.241762,16.644705,-0.020861,0.134576,-0.133765,7.728000,38.245733

4.512963,6.848692,7.473119,16.671175,-0.151695,-0.122027,-0.126837,7.732000,38.245733

0.175582,-4.163608,14.284555,16.659410,-0.478644,-0.120162,-0.061288,7.732000,38.245733

-3.278036,0.267179,9.599897,16.647646,-0.370194,0.468987,0.114578,7.724000,38.245733

1.351537,-3.995956,10.332773,16.644705,0.140881,-0.458836,-0.040770,7.724000,38.245733

-5.117411,3.320828,10.469289,16.659410,0.479822,0.269406,-0.020252,7.724000,38.245733

-0.372877,-6.247274,6.515111,16.656469,0.039892,-0.447111,-0.201180,7.728000,38.245733

-1.996701,1.256322,10.634545,16.647646,-0.347544,0.160956,0.031974,7.728000,38.245733

1.212626,3.644156,9.741203,16.644705,-0.100001,0.257149,0.135895,7.728000,38.245733

0.656981,0.360584,8.617939,16.641764,-0.246555,0.005875,0.086865,7.728000,38.245733

-3.572623,4.777000,6.539062,16.656469,0.236808,0.085014,-0.258736,7.732000,38.245733

-1.340465,-3.318166,11.151870,16.638823,0.584008,-0.324272,-0.222764,7.732000,1156.767706

-4.121083,-4.858163,7.293493,16.632940,-0.126114,-0.243534,-0.040770,7.732000,1156.767706

-1.163234,-3.950451,2.862707,16.638823,-0.042179,-0.103908,0.077539,7.732000,1156.767706

-5.143756,0.676727,10.392649,16.641764,-0.402169,0.270739,0.241414,7.728000,1156.767706

-0.408803,-3.734899,13.702565,16.624117,-0.119986,-0.067136,0.158277,7.728000,1156.767706

-1.893715,1.397628,12.315849,16.641764,-0.068825,-0.002119,0.071677,7.736000,1156.767706

1.567089,4.250096,10.033396,16.638823,0.308220,-0.243001,0.085533,7.736000,1156.767706

0.058226,2.176009,9.645403,16.641764,0.076664,0.018932,0.261398,7.736000,1156.767706

-2.504445,1.766461,7.358159,16.632940,0.467298,-0.166793,0.088198,7.736000,1156.767706

-0.202831,2.245465,2.134621,16.632940,-0.351808,-0.157999,0.179328,7.732000,1156.767706

-0.377667,-1.744638,16.353851,16.618235,-0.935627,-0.027166,0.360789,7.736000,1156.767706

0.534835,0.121082,17.501066,16.621176,-0.146898,-0.082591,0.220630,7.732000,1156.767706

-0.559689,3.007081,10.325588,16.621176,-0.098669,0.226239,0.084201,7.740000,1156.767706

2.781363,-3.308586,13.927697,16.621176,0.146210,0.126849,0.139891,7.740000,1156.767706

-2.731972,5.833204,2.177731,16.629999,-0.059232,0.224641,-0.090865,7.736000,1156.767706

0.070201,5.596097,7.451564,16.618235,-0.317434,0.131112,-0.112182,7.732000,1156.767706

1.447338,-1.186598,12.186519,16.629999,0.031365,-0.125225,-0.072746,7.732000,1156.767706

-0.420778,-1.291979,7.226432,16.615294,0.108639,0.007207,-0.108718,7.736000,1156.767706

-1.948800,-6.675983,9.942385,16.632940,-0.222041,0.094074,-0.075943,7.736000,29.338719

0.316888,1.328172,12.909814,16.624117,-0.073888,0.189468,0.038902,7.736000,29.338719

-0.418383,7.514508,7.101892,16.624117,0.359647,0.080751,-0.182262,7.736000,29.338719

-0.538134,2.106554,12.033237,16.612352,0.034296,0.090876,-0.056225,7.740000,29.338719

0.726437,1.447923,9.444221,16.621176,0.604526,0.177210,-0.051962,7.744000,29.338719

-1.965565,-1.802118,9.286150,16.618235,-0.188466,-0.127356,-0.030911,7.744000,29.338719

-1.156049,-3.562458,16.243681,16.635881,-0.190865,-0.035427,0.225426,7.744000,77.970476

2.594552,10.201719,4.963139,16.609411,0.572284,0.137507,0.200911,7.752000,77.970476

-4.844379,1.265902,4.915238,16.597647,0.126226,-0.212358,0.046896,7.744000,77.970476

-1.232689,-3.413967,8.119775,16.609411,-0.163419,-0.239271,0.321086,7.740000,77.970476

0.985099,4.729100,2.833966,16.609411,0.229347,0.115924,0.388767,7.740000,77.970476

3.260367,-5.737135,23.091042,16.612352,-0.025125,-0.248863,0.344801,7.744000,77.970476

3.463944,4.726705,3.662643,16.606470,0.933074,0.057569,0.055689,7.740000,77.970476

0.685721,5.964930,10.488449,16.594706,-0.069891,-0.234741,-0.109784,7.744000,77.970476

4.292621,6.180482,11.774575,16.600588,0.605059,0.160956,-0.042635,7.736000,77.970476

-0.765660,-3.229550,6.778563,16.603529,0.022039,-0.222483,-0.231557,7.740000,77.970476

-3.701954,0.588111,12.318244,16.618235,-0.725921,0.562782,0.014388,7.740000,77.970476

1.121615,0.968919,11.192585,16.594706,-0.091474,-0.005583,-0.207842,7.740000,46.075567

2.048487,3.258558,8.007209,16.621176,0.124361,-0.078860,-0.195851,7.740000,46.075567

0.328863,-3.871415,13.178057,16.600588,-0.186868,-0.050615,-0.179597,7.744000,46.075567

1.389857,8.503651,6.843229,16.609411,0.714309,0.231835,-0.068216,7.748000,46.075567

-3.934271,2.049073,11.034513,16.609411,-0.702473,-0.110303,-0.038372,7.740000,46.075567

1.219811,-4.419875,4.915238,16.609411,0.433457,0.088212,0.125502,7.740000,46.075567

-3.958221,-0.671669,13.314572,16.600588,-0.147698,-0.114033,0.056489,7.748000,46.075567

1.011444,-0.810580,8.637099,16.609411,-0.297450,0.025593,0.257668,7.740000,46.075567

-3.761830,2.379586,7.430009,16.588821,-0.074687,0.280331,-0.015456,7.740000,46.075567

-0.447123,-0.058544,11.618898,16.597647,0.050284,-0.105506,-0.014124,7.744000,46.075567

0.894088,-1.699132,10.078901,16.612352,0.032964,-0.217421,0.086599,7.744000,46.075567

-1.702113,-0.618979,3.861430,16.603529,-0.175410,0.138307,0.096725,7.744000,46.075567

-1.908085,2.379586,7.779682,16.588821,-0.187933,0.189734,0.048761,7.740000,46.075567

0.970729,0.154613,11.834451,16.600588,-0.286525,-0.184113,0.079138,7.740000,46.075567

2.173028,1.500613,10.359118,16.603529,0.158734,-0.134284,-0.080207,7.736000,46.075567

1.169515,3.062166,6.649232,16.591763,0.400949,-0.020505,-0.159079,7.740000,46.075567

1.308426,0.453990,7.097101,16.600588,-0.214580,-0.104707,-0.007995,7.740000,46.075567

-3.357072,-4.031881,6.689948,16.606470,-0.076819,0.016001,-0.060488,7.740000,46.075567

1.054554,4.456068,10.763877,16.594706,0.037760,0.021863,0.052492,7.744000,46.075567

1.677259,3.162757,4.999064,16.594706,0.244535,0.124717,0.111646,7.748000,28.127662

-6.628668,-1.888339,15.132392,16.603529,-0.598552,0.102867,0.249674,7.744000,28.127662

4.172870,3.910003,11.365026,16.588821,0.197371,-0.205430,0.340804,7.740000,28.127662

-0.820746,-2.312258,7.825187,16.591763,0.058544,-0.174254,0.224360,7.740000,28.127662

0.858163,-2.836767,9.889694,16.600588,-0.221508,-0.021837,0.387702,7.748000,140.088365

1.682050,2.702913,10.984219,16.585880,-0.047508,0.114325,0.364786,7.744000,140.088365

2.596947,3.090906,8.852651,16.591763,0.130223,0.190001,0.226492,7.748000,140.088365

0.714462,5.629627,4.936794,16.600588,0.342593,-0.051414,0.027178,7.744000,140.088365

1.128800,-1.315929,20.207439,16.597647,0.081993,-0.016241,0.001065,7.748000,140.088365

2.319125,5.564962,6.783354,16.603529,0.906161,0.093008,-0.225429,7.752000,140.088365

-4.858749,0.377349,5.748705,16.591763,0.358315,-0.043954,-0.320556,7.752000,140.088365

-2.818192,-4.927619,9.734018,16.585880,-0.489036,-0.136416,-0.029046,7.748000,140.088365

4.539308,4.594979,9.729228,16.597647,-0.037649,0.344815,-0.027181,7.752000,140.088365

1.210231,-3.849860,12.677497,16.588821,0.282373,0.139906,-0.131634,7.752000,140.088365

-4.480336,5.131464,9.717253,16.582939,0.054014,0.375192,-0.140694,7.748000,140.088365

-2.262548,-3.605568,3.911725,16.574116,-0.227636,-0.246465,-0.180663,7.744000,140.088365

-0.727340,-3.552878,14.294135,16.591763,-0.697143,-0.121761,0.106584,7.744000,140.088365

2.862794,2.132899,10.160332,16.574116,0.351387,0.318968,0.053558,7.744000,35.165065

0.714462,7.143280,10.023815,16.577057,0.180318,0.127648,-0.028513,7.744000,35.165065

-1.872159,-8.936881,15.589841,16.591763,-0.736313,-0.299225,0.059153,7.740000,35.165065

-1.273405,9.334723,4.201523,16.603529,0.798777,0.721593,-0.033043,7.748000,35.165065

-6.226305,0.171378,10.325588,16.591763,-0.793336,-0.180649,-0.156148,7.744000,35.165065

4.386026,-4.312099,9.659773,16.577057,0.573883,-0.318676,-0.004798,7.748000,35.165065

-3.000214,5.500297,4.364384,16.594706,-0.194062,0.499630,-0.049030,7.748000,35.165065

2.671193,-1.933844,13.930093,16.577057,-0.454662,-0.116964,0.019450,7.748000,35.165065

5.552401,0.176168,6.989326,16.577057,0.237874,-0.152137,0.035971,7.752000,35.165065

-7.007082,3.419024,10.325588,16.577057,0.035362,0.585964,0.026645,7.748000,35.165065

2.805314,1.263507,11.233300,16.577057,-0.141569,-0.387424,-0.168672,7.752000,35.165065

0.338444,-1.938634,11.137500,16.582939,-0.158356,0.026126,0.094593,7.748000,50.940198

3.528610,9.655655,10.098062,16.585880,0.439586,0.244625,0.100988,7.748000,50.940198

-0.387247,-8.457877,6.194179,16.577057,-0.883933,-0.347188,-0.001600,7.752000,50.940198

-1.946405,7.715690,10.430969,16.574116,0.390823,0.587563,0.052492,7.748000,50.940198

-2.051786,-0.844111,18.576431,16.579998,0.269316,-0.331467,-0.416749,7.752000,50.940198

3.097506,-5.272501,9.774734,16.577057,0.130489,-0.393019,-0.378911,7.752000,50.940198

1.519188,2.659803,1.349054,16.577057,0.268250,0.383186,-0.282718,7.752000,50.940198

-2.526000,5.675133,3.650668,16.579998,-0.316901,0.116723,-0.290712,7.744000,50.940198

-0.947682,-7.059186,17.795654,16.562351,-0.820249,-0.014376,-0.125239,7.744000,61.909379

6.263722,8.695252,17.570522,16.565292,1.058311,0.037584,-0.401560,7.752000,61.909379

1.313216,3.486085,5.693620,16.591763,0.390024,0.036518,-0.255272,7.748000,61.909379

-2.322423,-1.679972,7.513834,16.577057,-0.032586,-0.187044,-0.209707,7.756000,61.909379

-1.994306,-3.732504,13.736095,16.577057,-0.399505,-0.063672,0.050094,7.756000,61.909379

0.525255,4.810531,11.520702,16.579998,-0.305710,0.104999,-0.022118,7.752000,61.909379

0.240248,7.933637,9.592712,16.582939,0.884045,-0.100710,-0.144957,7.752000,61.909379

-3.797755,-4.846188,12.512241,16.577057,-0.270803,-0.392486,0.013322,7.752000,61.909379

-0.681835,-1.452446,12.488291,16.574116,-0.062163,-0.081791,0.200112,7.748000,61.909379

-1.199159,-1.751823,5.815766,16.579998,0.056946,-0.033295,0.147086,7.756000,61.909379

-3.824100,2.987921,5.748705,16.577057,-0.118653,0.126316,0.259267,7.752000,61.909379

-0.844696,-1.794933,12.236814,16.577057,-0.816785,0.049308,0.458048,7.744000,61.909379

1.746715,2.393956,12.620017,16.582939,-0.052837,0.040515,0.354127,7.748000,61.909379

0.932408,1.182076,5.755890,16.568233,0.252529,-0.226747,0.162807,7.744000,61.909379

-2.276918,-0.396242,8.258686,16.571175,-0.741110,-0.104707,0.215034,7.752000,61.909379

1.749110,0.671937,13.925303,16.565292,-0.202056,-0.088186,-0.015989,7.744000,61.909379

0.807867,-4.656981,18.978794,16.577057,0.056413,-0.061807,0.152948,7.752000,61.909379

-1.879345,4.554264,10.739926,16.582939,0.019907,0.395443,-0.088467,7.756000,61.909379

4.369261,6.590030,6.505531,16.568233,0.147276,-0.169724,-0.084736,7.752000,27.864523

0.357604,2.307735,9.240644,16.577057,-0.159156,0.160690,-0.129236,7.752000,27.864523

1.169515,1.730535,7.875483,16.577057,0.247733,0.014135,-0.161744,7.748000,27.864523

-2.094896,-3.528928,7.961703,16.577057,-0.276399,0.081017,-0.136430,7.748000,27.864523

-3.500773,-4.209113,7.583290,16.579998,-0.202322,-0.148940,-0.144424,7.752000,27.864523

-2.023046,2.595137,7.525810,16.571175,-0.225505,0.138840,-0.000268,7.752000,27.864523

2.024537,-2.566130,9.350815,16.582939,0.279442,-0.120162,0.056489,7.756000,27.864523

-3.998937,-0.290861,12.603251,16.574116,-0.250819,0.165752,0.139891,7.756000,27.864523

1.205441,11.071112,6.270820,16.579998,0.276511,0.110328,0.146819,7.756000,27.864523

1.248551,-7.301083,8.562854,16.562351,-0.305710,-0.582208,0.082336,7.752000,27.864523

-4.494706,3.912398,10.363909,16.577057,0.121163,0.670699,0.273922,7.752000,27.864523

-0.171696,-3.572038,8.323352,16.559410,-0.047508,-0.403145,-0.148954,7.748000,27.864523

-0.011229,0.712652,11.046489,16.568233,-0.308374,-0.115898,0.034639,7.748000,27.864523

2.060463,1.311407,12.830778,16.550587,0.097448,0.222509,-0.088467,7.752000,27.864523

-1.405131,0.487520,9.616662,16.544704,0.074532,0.259547,-0.246746,7.756000,27.864523

-1.711693,3.624996,6.390571,16.565292,-0.089342,0.090610,-0.406623,7.756000,27.864523

1.971847,-1.301559,9.896879,16.553528,0.402814,-0.213957,-0.461514,7.760000,27.864523

-1.009952,1.711375,14.603093,16.568233,-0.615606,0.352010,-0.405291,7.756000,27.864523

3.725001,6.927728,11.702724,16.535881,0.464367,-0.103641,-0.403426,7.756000,27.864523

3.013680,2.599927,-4.190626,16.562351,0.793181,-0.320808,-0.381309,7.764000,27.825215

-6.216725,-5.557509,11.202166,16.538822,-0.083480,-0.292030,-0.227294,7.756000,27.825215

-0.780031,-0.300441,10.792617,16.541763,0.386826,-0.013310,0.049028,7.760000,27.825215

-4.027677,1.718560,7.046806,16.547646,0.044155,-0.069001,0.003196,7.756000,27.825215

-1.340465,1.883817,7.916198,16.565292,0.105175,-0.168924,0.146287,7.760000,27.825215

0.551600,1.838311,5.808581,16.559410,0.152073,-0.374367,0.307763,7.752000,27.825215

-3.613339,-9.370379,12.361355,16.541763,-0.116788,-0.300024,0.464709,7.752000,27.825215

-5.761671,-2.752941,13.036750,16.556469,-0.301180,0.222242,0.590746,7.752000,27.825215

2.194584,1.471873,11.544653,16.556469,-0.133575,-0.256058,0.432467,7.752000,27.825215

2.448456,4.638089,5.490043,16.562351,-0.016865,-0.150272,0.473236,7.756000,27.825215

-3.809730,3.174732,4.249423,16.565292,-0.158889,0.047710,0.309628,7.748000,27.825215

0.884508,-4.637821,9.611873,16.547646,0.130756,-0.184912,0.358124,7.748000,27.825215

-1.769174,-0.477673,15.716777,16.562351,0.140615,-0.012777,0.260066,7.756000,27.825215

-0.957262,1.088670,12.258368,16.553528,-0.182338,-0.031963,0.077806,7.756000,27.825215

1.655704,1.076695,3.174059,16.556469,0.746284,0.114592,-0.197716,7.760000,27.825215

-0.523764,-2.024855,12.335010,16.547646,-0.009404,0.054904,-0.283517,7.764000,27.825215

4.283041,5.624837,4.263793,16.577057,0.135286,0.038650,-0.389569,7.760000,27.825215

1.229391,5.258399,3.672223,16.559410,0.152872,0.119921,-0.458850,7.760000,27.825215

0.755177,-6.714303,16.495157,16.556469,-0.227103,-0.356514,-0.334678,7.752000,27.825215

-1.405131,-1.991325,13.491804,16.568233,0.262388,0.204922,-0.347202,7.760000,27.794191

-1.484166,-4.441430,9.870534,16.571175,-0.343015,0.087146,-0.325885,7.760000,27.794191

-2.648146,7.356437,8.335326,16.574116,0.299693,0.082350,-0.131634,7.756000,27.794191

-2.703231,0.482730,6.924660,16.559410,-0.250819,-0.324538,0.112179,7.752000,27.794191

-1.939220,-4.343234,9.401111,16.553528,0.098780,-0.304021,0.290709,7.756000,27.794191

-0.006439,4.345897,9.123288,16.559410,0.174722,-0.439917,0.186522,7.756000,27.794191

6.143971,0.128267,13.058306,16.535881,0.486750,0.119122,0.738899,7.756000,78.518499

-3.433712,0.386930,6.704318,16.547646,0.489947,-0.447111,0.547846,7.756000,78.518499

-4.113898,9.317958,3.617138,16.553528,0.508067,0.271005,0.605934,7.756000,78.518499

-1.627867,-3.560063,19.577549,16.544704,-1.087244,-0.165460,0.868666,7.756000,78.518499

4.812340,4.674015,5.899591,16.571175,0.851270,-0.220885,0.624853,7.760000,78.518499

-1.333280,1.155731,3.535707,16.535881,0.100379,-0.011445,0.344002,7.756000,78.518499

-3.917506,-6.539467,13.987573,16.550587,-0.129578,0.137774,0.464709,7.756000,78.518499

1.552718,2.880145,8.148515,16.547646,0.531782,0.256883,0.272590,7.760000,78.518499

-2.221832,-5.346747,0.149150,16.550587,-0.449333,-0.281372,0.056489,7.756000,78.518499

2.002982,10.486727,3.298600,16.562351,-0.298782,0.673364,-0.010660,7.752000,78.518499

2.865189,5.150623,13.963623,16.565292,1.195007,0.026393,-0.344537,7.756000,78.518499

2.623292,-4.783917,3.399191,16.562351,-0.207119,-0.633901,-0.126837,7.760000,78.518499

-1.314120,4.434513,6.697133,16.553528,0.494743,0.957146,-0.002932,7.764000,42.089014

-0.950077,9.962217,4.673342,16.550587,0.407610,-0.015975,-0.215569,7.756000,42.089014

-3.491193,-12.165368,12.227234,16.550587,-1.114956,-0.387690,0.160942,7.756000,42.089014

4.249510,10.275966,14.507292,16.550587,0.298893,0.864417,0.225159,7.752000,42.089014

-4.389325,-9.071002,8.332932,16.559410,0.132088,-0.654153,-0.200648,7.756000,42.089014

-5.649105,3.136412,8.867022,16.547646,-0.053903,0.610478,0.236884,7.760000,42.089014

2.623292,-3.097824,7.870693,16.562351,-0.521811,-0.051681,0.162541,7.764000,42.089014

1.674865,3.119647,7.710226,16.550587,0.048952,0.187336,0.115110,7.756000,42.089014

1.274896,8.973075,22.722210,16.574116,0.044955,0.195063,0.467374,7.760000,42.089014

6.206242,2.295760,5.767866,16.553528,0.304223,-0.105773,0.167337,7.768000,42.089014

-6.863380,1.570069,-4.602569,16.553528,0.730829,0.196662,-0.054626,7.760000,42.089014

-7.802228,-4.690512,24.693310,16.550587,-1.557018,0.239829,0.222761,7.752000,42.089014

11.882438,0.087552,7.865902,16.544704,1.422566,-0.171323,0.058887,7.760000,42.089014

-0.906967,1.361702,5.207431,16.571175,-0.503425,0.680558,0.228091,7.756000,42.089014

-1.718878,4.326737,13.570840,16.565292,-0.171946,0.560117,-0.017854,7.760000,42.089014

3.772902,1.570069,10.727951,16.553528,0.435056,-0.252327,-0.203845,7.760000,42.089014

-3.242111,2.025123,11.585368,16.532940,0.011114,0.467388,-0.074078,7.756000,42.089014

0.920433,-0.290861,4.474555,16.571175,-0.068825,0.316037,-0.433269,7.760000,42.089014

3.296293,1.807176,18.037552,16.541763,0.050018,0.255550,-0.460981,7.760000,42.089014

1.562299,4.307577,6.323510,16.544704,0.113169,0.166552,-0.511609,7.760000,27.224895

-3.685189,-5.380277,7.707831,16.547646,-0.461590,0.282729,-0.654966,7.752000,27.224895

1.832936,2.338870,11.369817,16.544704,-0.359269,0.179076,-0.555309,7.752000,27.224895

-2.959498,0.837193,6.395360,16.547646,-0.281462,-0.029565,-0.410620,7.752000,27.224895

-5.970038,0.997660,5.044569,16.553528,0.002054,0.223841,-0.375713,7.752000,27.224895

2.704723,-2.166161,14.030684,16.574116,-0.075753,-0.129488,-0.204378,7.756000,27.224895

-0.847091,5.430841,13.060700,16.550587,-0.190865,0.077020,0.024780,7.752000,27.224895

4.613554,-4.563576,12.447576,16.544704,0.035362,-0.391154,-0.143891,7.752000,65.816214

-1.182394,5.069193,7.271938,16.544704,0.801442,0.290457,-0.035974,7.756000,65.816214

-2.497260,-1.404545,7.988049,16.559410,-0.385382,-0.322140,-0.066883,7.752000,65.816214

-0.210016,-2.930173,1.981340,16.547646,0.245601,-0.216621,-0.077275,7.752000,65.816214

-3.833680,-3.140934,9.307705,16.562351,-0.809058,0.012270,-0.166007,7.744000,65.816214

4.929696,-1.464421,10.210628,16.538822,0.279708,0.050641,-0.116712,7.752000,65.816214

-1.429081,1.479059,7.418034,16.559410,-0.240160,0.162821,-0.170271,7.756000,65.816214

-0.535739,5.931400,3.480622,16.538822,-0.006739,-0.151338,-0.434069,7.744000,65.816214

-0.674650,1.694610,10.387858,16.556469,0.347123,0.200659,-0.251542,7.748000,65.816214

-2.018256,-5.811381,16.313137,16.550587,0.082526,-0.234474,-0.137762,7.756000,65.816214

0.053436,5.792489,5.849296,16.541763,0.075598,0.161223,-0.010127,7.756000,65.816214

-1.591942,1.057535,16.404148,16.553528,-0.364865,-0.145209,0.054357,7.752000,65.816214

2.424506,-1.960190,6.107958,16.565292,0.228281,-0.305087,0.656296,7.756000,43.465374

-6.219120,6.405614,8.488607,16.544704,-0.557783,0.402638,0.372780,7.748000,43.465374

-1.764384,-5.603014,14.825830,16.538822,0.276777,-0.451641,0.228091,7.752000,43.465374

-0.523764,-2.175741,11.796130,16.532940,-0.042978,-0.280306,0.476434,7.756000,43.465374

0.084571,11.157332,9.482541,16.535881,0.151540,0.263011,0.167870,7.752000,43.465374

-1.541647,-0.611794,3.667433,16.544704,0.261855,-0.542238,-0.075677,7.756000,43.465374

-0.818351,-7.756137,15.929934,16.556469,-0.390179,-0.102309,0.271790,7.756000,85.129660

3.813617,1.936507,14.665363,16.547646,0.236808,0.141771,0.468173,7.760000,85.129660

-0.586034,11.049557,9.159214,16.550587,-0.064828,0.688285,0.091395,7.756000,85.129660

-1.278195,-3.239130,7.121051,16.547646,0.292498,-0.328802,-0.218767,7.752000,85.129660

2.640057,-1.097983,16.109560,16.562351,-0.599884,0.061566,-0.090599,7.748000,85.129660

3.143012,6.271492,14.092954,16.532940,0.661016,-0.191041,-0.453254,7.748000,85.129660

1.610199,-5.574274,6.558222,16.538822,0.192308,-0.140146,-0.358660,7.752000,85.129660

-5.253927,4.611744,8.653864,16.538822,0.006051,0.386916,-0.170271,7.752000,85.129660

0.666561,-4.058227,10.897998,16.559410,-0.896457,-0.219552,-0.128436,7.744000,85.129660

1.028209,0.130662,14.528848,16.553528,0.272780,0.403970,-0.171070,7.740000,85.129660

-0.672255,2.774764,8.886181,16.541763,0.537910,-0.123093,-0.344537,7.748000,85.129660

-2.434989,0.413275,6.287585,16.547646,0.287969,-0.234474,-0.110583,7.756000,85.129660

-2.688861,5.624837,10.414204,16.550587,0.076131,0.143636,0.104718,7.744000,85.129660

-0.320187,-8.802760,4.417075,16.532940,-0.242558,-0.338395,-0.051162,7.752000,85.129660

-2.899623,-1.991325,12.136223,16.547646,-0.307842,-0.124958,0.066081,7.756000,37.484921

2.747833,5.469161,9.659773,16.550587,0.305555,-0.012244,0.066881,7.752000,37.484921

-0.947682,1.294642,14.519267,16.532940,-0.155958,-0.129222,-0.030112,7.756000,37.484921

0.031881,-0.405822,5.607399,16.541763,-0.324096,-0.013044,0.021049,7.752000,37.484921

1.940712,4.127950,12.715817,16.535881,-0.110659,-0.147874,-0.021851,7.748000,37.484921

2.664008,5.088353,2.592070,16.532940,0.723901,-0.181448,-0.118577,7.748000,37.484921

-4.068392,-13.425148,25.428581,16.544704,-1.642019,0.106065,0.166005,7.748000,37.484921

6.359523,2.904095,14.933605,16.553528,0.986100,0.122319,0.013322,7.752000,37.484921

-2.710416,2.738839,4.924819,16.547646,0.580544,0.087146,-0.105787,7.752000,37.484921

-4.178564,5.124278,-1.989603,16.544704,-0.062963,-0.173987,-0.063686,7.752000,37.484921

4.350101,-9.868544,9.614267,16.565292,-0.082414,-0.433522,0.213169,7.744000,37.484921

-5.586835,0.549791,11.812895,16.527058,0.061742,0.228105,0.073009,7.744000,37.484921

-0.071105,1.186866,15.700012,16.535881,0.128624,0.242760,0.031974,7.752000,37.484921

-0.736920,2.810689,4.266188,16.538822,0.097714,-0.124692,-0.021052,7.752000,37.484921

1.308426,-0.389057,1.590951,16.529999,-0.112258,-0.256324,-0.131101,7.744000,37.484921

1.837726,-4.594711,17.987255,16.535881,0.336998,-0.166526,0.110847,7.752000,37.484921

1.071320,2.314920,12.164963,16.535881,0.113169,0.044512,-0.067683,7.764000,37.484921

-0.969237,7.155255,-7.608319,16.527058,1.523289,-0.078594,-0.333879,7.752000,37.484921

-5.186866,-2.870297,8.936477,16.535881,-0.554852,-0.202765,0.278718,7.760000,37.484921

0.443824,1.273087,8.428732,16.538822,-1.055535,0.179875,0.205175,7.748000,37.484921

3.911813,1.708980,9.360395,16.538822,0.335399,0.431948,0.167604,7.748000,1620.284619

-0.322582,2.025123,8.905341,16.535881,-0.097336,-0.407941,-0.136697,7.748000,1620.284619

-2.581085,2.300550,8.510163,16.521175,-0.085079,0.207854,0.140957,7.752000,1620.284619

-3.883976,3.524405,7.937753,16.518234,-0.225238,0.209985,0.097257,7.748000,1620.284619

1.662889,-8.201611,10.390254,16.527058,-0.392044,-0.381029,0.122038,7.744000,1620.284619

2.357445,3.225028,8.706554,16.538822,0.298361,0.254484,0.341604,7.748000,1620.284619

-0.432753,3.538775,8.007209,16.518234,-0.648647,0.149232,0.199846,7.744000,1620.284619

2.764598,-3.143329,19.187160,16.527058,-0.042978,-0.044486,0.168936,7.744000,1620.284619

0.532440,3.636971,10.560300,16.538822,0.627442,-0.011179,0.123637,7.748000,1620.284619

-4.456386,2.722074,3.403981,16.544704,0.083858,-0.016241,-0.066350,7.744000,1620.284619

3.183727,-1.359040,9.575947,16.521175,0.226149,-0.049016,0.133496,7.748000,1620.284619

-4.008517,-4.007931,11.345866,16.524117,-0.218044,0.139639,0.217965,7.740000,1620.284619

-0.562084,7.136095,10.524375,16.524117,0.115034,0.071158,-0.015190,7.744000,1620.284619

0.003141,1.833521,11.465617,16.538822,-0.114923,0.093008,0.140424,7.748000,1620.284619

2.788548,-1.998510,11.664404,16.529999,0.076397,-0.099111,-0.035441,7.748000,1620.284619

3.308268,4.841666,7.288703,16.524117,0.699120,0.177210,-0.061554,7.752000,1620.284619

-4.089948,6.221197,1.808898,16.538822,-0.033385,0.009073,-0.134032,7.752000,1620.284619

-2.921178,-4.870138,21.378603,16.527058,-0.805593,0.004276,0.036504,7.736000,1620.284619

7.736659,2.231094,11.436877,16.541763,1.043390,0.046111,-0.248877,7.748000,30.167260

-6.084999,2.049073,4.361989,16.529999,0.263987,0.197728,-0.197983,7.752000,30.167260

5.001546,3.263348,5.097260,16.518234,0.085457,-0.231277,-0.224096,7.740000,30.167260

3.401674,-1.167438,12.967295,16.532940,0.530183,0.133244,-0.150020,7.740000,146.422590

-4.679122,-6.055673,8.754455,16.556469,0.083592,-0.151871,-0.463113,7.744000,146.422590

-2.796637,0.882698,11.573393,16.547646,0.132621,0.146034,-0.238219,7.744000,146.422590

1.801800,6.041571,5.621769,16.529999,-0.000077,0.004543,-0.191055,7.744000,146.422590

0.503700,0.997660,10.090877,16.532940,0.032431,-0.050882,-0.112981,7.736000,146.422590

-2.121242,3.153177,7.307863,16.550587,0.329803,-0.057810,-0.189989,7.740000,146.422590

-2.051786,-3.670234,9.942385,16.512352,-0.339551,-0.119362,-0.079141,7.748000,146.422590

2.082018,6.331368,11.935041,16.535881,0.860863,0.200925,-0.129236,7.748000,146.422590

-4.772528,7.715690,10.622570,16.535881,-0.541263,-0.106839,-0.005864,7.748000,146.422590

-1.311725,-2.903827,4.390729,16.524117,0.478756,0.279532,0.034106,7.744000,146.422590

-0.408803,-4.771943,19.132074,16.497646,-0.130378,-0.219019,0.029310,7.748000,146.422590

-2.715206,2.786739,16.171831,16.529999,0.320743,0.310974,0.023980,7.744000,146.422590

3.499869,3.433394,5.355922,16.518234,-0.007272,-0.130287,0.052492,7.748000,146.422590

1.416202,0.870723,7.877878,16.518234,0.181916,-0.107372,0.132963,7.744000,146.422590

-1.670978,0.293524,16.964582,16.524117,-0.282528,0.018132,0.177196,7.748000,146.422590

-0.427963,7.234291,6.460026,16.529999,0.424397,0.154827,-0.113781,7.748000,146.422590

0.082176,1.584439,3.514152,16.532940,-0.176742,-0.385292,-0.270994,7.744000,146.422590

3.998034,-1.337485,13.467854,16.518234,-0.281462,0.005875,-0.118577,7.740000,146.422590

0.985099,3.438184,14.509687,16.524117,0.867791,0.032255,-0.351199,7.740000,146.422590

-2.885253,-6.532282,8.740085,16.524117,-0.685152,-0.309617,-0.340540,7.736000,146.422590

2.120338,2.652618,8.165280,16.527058,0.752146,0.126316,-0.172403,7.752000,25.087606

0.724042,0.374954,12.469131,16.529999,0.163264,-0.014376,-0.151086,7.752000,25.087606

-1.184789,6.625956,14.057029,16.527058,0.076664,0.148699,-0.179863,7.752000,25.087606

-0.123795,-2.726596,8.807145,16.518234,0.159267,-0.068468,-0.102856,7.752000,25.087606

-0.938102,4.575819,14.078584,16.509411,0.508599,-0.034361,-0.097260,7.748000,25.087606

1.238971,-1.347065,6.244474,16.515293,0.446514,-0.254725,0.019717,7.748000,25.087606

-1.340465,4.501573,8.790380,16.494705,-0.658506,0.207854,0.189720,7.740000,25.087606

0.565970,-1.004577,18.372854,16.512352,0.894704,0.503360,0.099123,7.744000,84.710559

2.314335,1.771251,-1.091470,16.494705,1.196339,-0.506799,-0.346669,7.752000,84.710559

0.221088,1.972432,11.721885,16.506470,-0.385116,-0.403411,0.056222,7.744000,84.710559

0.489330,3.342384,7.149792,16.500587,0.889641,0.064230,0.147352,7.744000,84.710559

-4.442016,-1.696738,10.565090,16.521175,-0.193796,-0.352784,0.122571,7.748000,84.710559

-0.808771,2.362821,10.100456,16.518234,-0.024858,0.338953,0.297637,7.744000,84.710559

2.247274,4.216566,9.868139,16.524117,0.193907,0.038916,0.325349,7.748000,84.710559

-1.079408,-0.527968,5.121210,16.521175,0.341794,-0.108970,0.220630,7.744000,84.710559

-6.001173,-1.809304,14.794695,16.506470,-0.600950,0.116457,0.153481,7.740000,84.710559

2.743043,-2.475119,18.353693,16.521175,0.248266,0.097005,0.160409,7.744000,84.710559

1.018629,2.911280,8.098220,16.494705,0.642097,0.019731,-0.099125,7.744000,84.710559

2.563417,8.906014,1.509521,16.485882,-0.195661,-0.101776,-0.132433,7.732000,84.710559

-2.276918,-0.671669,12.725398,16.488823,-0.187667,0.248356,-0.288047,7.732000,84.710559

1.397042,-3.775615,13.429533,16.500587,0.102511,0.182007,-0.391968,7.732000,84.710559

-2.384694,-2.266752,14.258210,16.491764,-0.449600,0.101002,-0.341606,7.732000,35.990553

2.685563,7.787540,6.529481,16.494705,0.309286,0.240362,-0.392234,7.732000,35.990553

1.329982,4.197406,5.023015,16.482941,0.077996,-0.130554,-0.392767,7.732000,35.990553

-1.345255,-2.831977,6.927055,16.494705,-0.276399,-0.152404,-0.362390,7.728000,35.990553

-1.299750,-3.871415,19.496119,16.491764,-0.355272,0.074622,-0.358660,7.724000,35.990553

2.072438,1.759276,17.230429,16.491764,0.750014,0.044512,-0.423943,7.744000,35.990553

-0.559689,4.041729,6.768983,16.485882,0.730829,-0.168392,-0.260069,7.740000,35.990553

-2.751132,5.497901,0.290456,16.480000,0.087855,-0.058875,-0.071413,7.744000,35.990553

-0.260311,-5.052160,7.073151,16.465292,-0.096270,-0.148407,-0.320289,7.732000,35.990553

-1.908085,-2.264357,14.521663,16.488823,-0.550056,0.026126,-0.330148,7.728000,35.990553

5.243443,4.784185,7.518625,16.485882,0.379898,-0.121494,-0.432736,7.732000,35.990553

-1.326095,0.602481,6.656418,16.509411,-0.141303,-0.238738,-0.353064,7.724000,35.990553

-2.320028,-0.781840,6.301955,16.497646,-0.259345,-0.078594,-0.182795,7.720000,35.990553

-1.359625,0.111502,15.038986,16.485882,-0.727254,0.004276,-0.080473,7.708000,35.990553

3.114271,-2.623610,15.175503,16.477058,0.507267,-0.490811,-0.244614,7.716000,35.990553

-1.694928,0.825218,11.393766,16.485882,-0.373391,-0.065004,0.023181,7.716000,35.990553

4.201610,8.910804,12.696657,16.488823,0.612253,0.015468,0.092728,7.732000,35.990553

-5.378468,3.706426,5.842111,16.482941,0.063874,-0.203298,-0.026648,7.732000,35.990553

-1.259035,0.489915,11.604528,16.480000,-0.422420,-0.147874,-0.073012,7.720000,35.990553

-1.031508,-1.354250,11.915881,16.474117,0.208296,-0.134551,-0.254739,7.720000,35.990553

1.090480,0.190538,7.013276,16.485882,-0.158889,-0.226480,-0.186525,7.724000,35.990553

1.569484,1.694610,9.616662,16.462351,-0.401636,-0.108704,-0.093796,7.720000,35.990553

0.467775,-0.820160,12.763718,16.497646,0.034296,0.065563,-0.174534,7.720000,35.990553

0.328863,-3.291821,12.277529,16.474117,0.248799,-0.071932,-0.342139,7.732000,23.211539

-0.653095,5.102723,4.383544,16.474117,0.411607,-0.063405,-0.234755,7.732000,23.211539

0.580340,8.922779,7.226432,16.482941,-0.060298,-0.134817,-0.017588,7.732000,23.211539

1.897601,2.022728,5.422983,16.488823,0.885644,-0.173188,0.168936,7.736000,23.211539

-9.785304,-4.733622,14.928816,16.474117,-0.362733,-0.020771,0.247809,7.728000,23.211539

-0.554899,5.586517,11.561419,16.482941,-0.070690,-0.254192,0.592078,7.728000,23.211539

0.937198,1.093460,2.649550,16.477058,1.004220,-0.285369,0.409552,7.728000,23.211539

-6.753209,0.844378,11.060859,16.459410,-1.434978,0.027991,0.659227,7.716000,23.211539

7.930656,5.229659,15.517990,16.491764,0.708713,-0.424195,0.562501,7.708000,23.211539

-3.251691,-7.904628,11.204560,16.474117,-0.105330,-0.416735,0.611264,7.708000,23.211539

2.153868,2.089788,11.223721,16.491764,0.552566,-0.439650,0.341071,7.712000,23.211539

-0.861461,5.541012,8.325747,16.477058,-0.236430,0.393844,0.347199,7.716000,23.211539

2.220929,-0.247751,12.737372,16.465292,-0.173278,-0.302156,0.152149,7.712000,23.211539

-0.293842,-1.933844,12.205678,16.480000,-0.249486,0.371728,-0.049563,7.712000,23.211539

2.939435,7.856996,9.207114,16.480000,0.507001,0.117789,-0.289913,7.724000,23.211539

0.443824,7.298956,5.743915,16.494705,0.319411,0.208919,-0.439664,7.724000,23.211539

0.252223,-3.536113,10.428574,16.482941,-0.177541,-0.221418,-0.503082,7.724000,23.211539

-2.195487,-0.820160,12.265553,16.482941,0.018575,0.460993,-0.391168,7.728000,23.211539

0.086966,-2.226037,10.143566,16.497646,0.486217,0.014402,-0.345070,7.732000,23.211539

-2.502050,1.222791,9.262199,16.480000,0.024970,0.119654,-0.283784,7.736000,23.211539

0.999469,11.847098,9.791499,16.471176,-0.138105,-0.152670,0.050627,7.732000,23.211539

1.806591,5.064403,5.628954,16.485882,1.243770,-0.286701,0.131365,7.732000,23.333389

-6.149664,-11.351061,14.423467,16.459410,-0.417891,-0.462833,0.330945,7.728000,23.333389

-2.652936,5.919425,12.775693,16.465292,-0.065627,0.520148,0.571294,7.732000,23.333389

1.143170,3.608231,4.793093,16.471176,0.403880,-0.925145,-0.030112,7.720000,23.333389

3.384908,-3.514557,16.483183,16.477058,0.022838,-0.045019,0.296571,7.712000,23.333389

-0.677045,-0.671669,13.331338,16.488823,0.031099,-0.131620,0.179328,7.712000,23.333389

1.054554,3.071746,6.069638,16.480000,0.192042,-0.076728,0.115910,7.716000,23.333389

-5.213212,2.535262,3.897355,16.471176,-0.269737,0.433014,0.047962,7.712000,23.333389

0.393529,8.254569,4.565566,16.480000,-0.334488,-0.172122,-0.166274,7.708000,23.333389

2.810104,-5.552719,12.471525,16.480000,0.075598,-0.241136,-0.159346,7.712000,23.333389

-2.566715,4.178246,10.704001,16.480000,0.133154,-0.051947,-0.116712,7.704000,23.333389

4.694984,-2.448774,3.044728,16.480000,-0.742975,-0.123626,0.033040,7.704000,23.333389

0.724042,-1.873969,19.527252,16.491764,-0.089076,0.024261,0.278985,7.704000,23.333389

1.715580,5.224869,12.615227,16.477058,0.747883,0.057835,0.240614,7.708000,23.333389

-2.461334,6.625956,6.759404,16.480000,0.024437,0.050641,0.163873,7.712000,23.333389

0.005536,4.432117,3.437511,16.471176,-0.057100,-0.110836,0.289377,7.708000,23.333389

-0.301027,-0.269306,11.671589,16.468235,-0.284126,-0.087653,0.359457,7.708000,23.333389

-0.037575,2.434671,17.263960,16.482941,0.022039,0.379189,0.395695,7.712000,23.333389

1.962267,5.327855,4.330854,16.462351,0.268783,-0.108704,0.100189,7.712000,23.333389

-2.743947,-9.454206,5.252936,16.482941,-0.754166,-0.140146,0.025846,7.700000,23.333389

0.795892,2.937625,14.239050,16.485882,-0.329159,0.383719,0.185723,7.700000,23.333389

2.561022,2.463411,6.610912,16.456469,0.134486,0.074356,-0.113781,7.704000,23.333389

-2.923573,-2.554155,6.505531,16.474117,-0.068292,-0.024235,-0.167873,7.700000,23.333389

1.358722,0.248018,12.241604,16.456469,-0.388313,0.244359,-0.131101,7.704000,23.333389

1.648519,3.675291,10.107641,16.459410,-0.321165,0.278999,-0.148421,7.708000,21.884248

1.411412,4.848851,13.510964,16.468235,0.295962,0.087679,-0.176133,7.704000,21.884248

1.289266,-8.429137,14.797090,16.456469,0.089987,-0.056744,-0.048231,7.716000,21.884248

-2.231412,5.026083,13.376842,16.447645,0.184315,0.485774,0.173732,7.716000,21.884248

-3.603759,3.150782,5.013434,16.447645,0.941335,-0.179050,-0.148687,7.720000,21.884248

-2.003886,-0.542338,5.679250,16.462351,0.052949,-0.455372,0.017052,7.720000,21.884248

0.491725,3.749537,7.894643,16.482941,-0.114390,0.060233,0.346666,7.708000,21.884248

0.956359,3.256163,10.768666,16.447645,0.916820,0.271538,0.386103,7.712000,77.785715

-2.348768,-6.589762,8.289822,16.471176,0.198970,-0.393286,0.349064,7.712000,77.785715

-2.822982,-0.525573,9.623847,16.477058,-0.182071,0.163887,0.361855,7.712000,77.785715

-3.361862,1.416788,7.647956,16.474117,-0.022460,0.061299,0.280850,7.708000,77.785715

0.937198,6.400824,14.797090,16.482941,-0.462923,0.247823,0.317089,7.700000,77.785715

4.172870,2.777159,10.088481,16.459410,0.958388,-0.086854,0.009858,7.704000,77.785715

-1.898505,-2.920593,9.542417,16.497646,-0.324629,-0.102309,0.021316,7.700000,77.785715

2.062858,10.256805,7.300678,16.468235,0.291166,0.672831,-0.038105,7.700000,77.785715

-0.047155,-8.033959,6.546247,16.462351,-0.395774,-0.364508,-0.253674,7.688000,77.785715

-3.457662,5.725428,14.538427,16.477058,-0.445336,0.757566,-0.085536,7.692000,77.785715

4.486618,-2.314652,12.315849,16.482941,-0.083214,-0.046352,-0.499885,7.684000,77.785715

0.278568,6.570870,11.173425,16.462351,0.317812,0.125517,-0.552644,7.692000,77.785715

-1.922455,-0.331576,4.287744,16.474117,-0.149829,-0.076728,-0.498020,7.688000,77.785715

-3.723510,0.669542,5.415798,16.468235,-0.731783,-0.176918,-0.322421,7.688000,77.785715

-0.600404,2.781949,8.440707,16.471176,-0.329958,0.054638,-0.125239,7.680000,77.785715

0.896483,-2.185322,9.901670,16.471176,0.002054,-0.196370,-0.034908,7.688000,77.785715

-3.539093,-1.876364,11.360236,16.480000,-0.353407,-0.128955,0.147885,7.688000,77.785715

-5.601205,3.842942,15.628161,16.474117,-0.262277,0.183073,0.285114,7.684000,29.488436

2.436481,-0.542338,9.369975,16.453527,0.575748,-0.566486,0.366385,7.688000,29.488436

-3.290011,1.610784,7.904223,16.462351,-0.183404,-0.494542,0.609665,7.692000,29.488436

0.139657,0.935389,16.121534,16.471176,-0.407765,0.147367,0.872930,7.684000,29.488436

2.199374,2.552027,18.080662,16.456469,-0.061097,-0.265117,0.844152,7.692000,29.488436

1.246156,7.227106,11.575788,16.468235,0.882979,-0.009047,0.769276,7.688000,29.488436

1.399437,4.549474,7.822792,16.480000,0.214425,0.062898,0.551043,7.692000,29.488436

2.374210,-0.753100,8.083850,16.450586,0.065206,-0.458303,0.205441,7.684000,29.488436

-1.850604,0.808453,9.295730,16.468235,0.068403,0.122586,0.184657,7.680000,29.488436

-0.004044,-2.415243,7.358159,16.468235,-0.238295,0.107664,-0.065018,7.684000,29.488436

-0.425568,-0.185480,11.743440,16.462351,-0.148497,0.380255,-0.155882,7.688000,29.488436

-1.002767,0.434830,15.237773,16.456469,0.456373,0.370129,-0.372249,7.696000,29.488436

3.044816,6.798397,5.243356,16.474117,0.229080,-0.221418,-0.494822,7.696000,29.488436

0.613871,-2.745756,9.403505,16.459410,0.086523,0.374393,-0.239285,7.692000,29.488436

-1.944010,8.932360,7.789262,16.462351,0.131821,0.278999,-0.271260,7.692000,29.488436

2.889139,-3.342116,9.470566,16.447645,-0.003275,0.045578,-0.181196,7.684000,29.488436

2.187399,0.791688,19.467377,16.465292,-0.182604,-0.052214,-0.150819,7.684000,29.488436

1.878441,3.167547,8.433522,16.474117,0.984235,0.114325,-0.162011,7.692000,29.488436

-5.479059,3.275323,7.171347,16.462351,-0.637189,-0.010113,-0.182528,7.680000,29.488436

6.697220,13.384701,7.461144,16.480000,-0.005140,-0.277908,-0.206243,7.680000,29.488436

-3.462452,-10.354733,13.185242,16.480000,-0.364065,-0.018906,0.104185,7.672000,29.488436

-0.425568,6.848692,14.224680,16.474117,-0.274267,0.483109,-0.074611,7.668000,29.488436

3.729791,-5.147961,7.609635,16.471176,0.441451,-0.237405,-0.280320,7.680000,29.488436

-5.869447,3.141202,12.720608,16.453527,0.129690,0.396242,-0.444194,7.680000,29.488436

2.795734,-0.465697,13.304993,16.468235,-0.614007,-0.039157,-0.429272,7.688000,29.488436

4.469852,11.090272,3.677013,16.459410,0.690860,0.198527,-0.318690,7.692000,29.488436

-2.437384,1.380862,8.941267,16.456469,0.517393,0.078619,-0.120709,7.684000,29.488436

-3.110384,-2.348183,11.355447,16.450586,-0.136240,-0.201699,-0.106853,7.696000,29.488436

1.792220,5.483531,8.560458,16.465292,-0.050172,-0.094315,0.165472,7.696000,29.488436

0.362394,4.961417,9.384345,16.474117,-0.129312,0.001878,0.172133,7.688000,29.488436

-1.266220,-3.746874,9.616662,16.462351,0.532581,-0.137482,0.290976,7.680000,29.488436

-4.530631,-6.668798,13.273857,16.453527,-0.156224,0.146034,0.383438,7.676000,29.488436

-0.049550,3.900423,12.830778,16.444704,0.276511,-0.088453,0.251006,7.684000,29.488436

3.533400,3.869288,1.258044,16.450586,0.356183,-0.187044,0.198247,7.680000,29.488436

-1.134493,-4.348024,6.328300,16.438822,-0.150895,-0.110569,0.229423,7.676000,29.488436

0.383949,6.477464,9.928015,16.456469,0.303423,0.237964,0.334143,7.688000,29.488436

0.925223,-0.973442,12.375725,16.432940,0.323142,0.181474,0.232887,7.688000,29.488436

-4.020492,1.050350,6.012157,16.447645,0.020707,0.252886,-0.043701,7.680000,29.488436

-2.355953,5.885894,6.175019,16.459410,-0.156224,0.183872,-0.342939,7.668000,29.488436

5.427860,0.614456,19.247036,16.450586,-0.064828,-0.193172,-0.345603,7.664000,29.488436

1.284476,-2.908617,9.772339,16.444704,0.370305,-0.006915,-0.265398,7.668000,29.488436

-3.615734,4.020175,9.161609,16.441763,-0.078950,0.609679,-0.111116,7.672000,29.488436

-2.205067,6.654696,4.177573,16.438822,0.074799,0.176677,-0.242749,7.668000,29.488436

3.636385,4.101605,8.203601,16.456469,-0.093073,-0.347987,-0.360259,7.668000,29.488436

-2.183512,-3.413967,11.278806,16.453527,0.387093,-0.017574,-0.416749,7.680000,29.488436

-1.802704,6.716966,10.215417,16.444704,0.327938,0.132711,-0.420746,7.684000,29.488436

-0.794401,3.076536,10.950688,16.450586,-0.000077,-0.012777,-0.409821,7.692000,29.488436

3.013680,1.982013,5.106840,16.450586,-0.127180,-0.337862,-0.382375,7.684000,29.488436

4.340521,0.782108,10.612990,16.438822,0.327139,-0.003718,0.026112,7.688000,29.488436

-4.822824,1.280272,10.797407,16.459410,-0.291854,0.240362,0.205974,7.692000,29.488436

-6.849010,3.423814,13.046330,16.447645,-0.238295,0.011737,0.010924,7.684000,10.298211

4.747674,0.353399,10.004656,16.450586,0.458771,-0.608321,-0.012525,7.680000,10.298211

-2.183512,1.297037,7.341393,16.435881,0.123561,0.086080,0.201977,7.680000,10.298211

-4.128268,1.464688,9.178373,16.444704,-0.021394,-0.162529,0.218231,7.688000,10.298211

-4.437225,2.372401,8.134145,16.438822,-0.602016,-0.126823,0.229423,7.680000,10.298211

1.667679,-0.975837,11.760204,16.450586,-0.112525,-0.385825,0.079671,7.680000,10.298211

-0.471073,-1.428495,3.490202,16.438822,-0.163419,0.168417,0.106051,7.684000,10.298211

0.467775,5.667948,10.979428,16.435881,-0.510087,0.011737,0.095925,7.672000,10.298211

3.966898,1.491034,14.540822,16.438822,0.592802,-0.182248,-0.156148,7.680000,10.298211

-5.194052,-5.626965,8.558064,16.450586,-0.370727,-0.144143,-0.250210,7.668000,10.298211

-0.854276,-0.444142,6.716293,16.450586,-0.044310,0.179875,-0.286182,7.676000,10.298211

-1.594337,1.948482,9.975915,16.444704,-0.031254,-0.001320,-0.467643,7.672000,10.298211

-0.794401,1.165311,8.498188,16.435881,-0.335287,-0.138015,-0.380510,7.672000,10.298211

-0.023204,1.206026,15.539546,16.435881,0.024704,-0.027166,-0.355995,7.668000,10.298211

2.302360,1.402418,13.168476,16.444704,-0.345146,-0.054346,-0.308032,7.664000,10.298211

-0.178881,6.151742,9.008327,16.424116,0.460903,-0.028765,-0.237153,7.672000,10.298211

-0.516578,8.494071,4.508085,16.453527,0.080128,-0.233408,-0.261135,7.660000,10.298211

1.969452,-6.661613,15.062937,16.453527,-0.096270,-0.587270,-0.157481,7.660000,10.298211

-1.982330,-2.118261,13.613950,16.432940,0.353252,0.132178,-0.018654,7.672000,10.298211

0.290543,8.362345,0.965851,16.429998,0.026302,-0.069534,-0.107919,7.676000,10.298211

-0.030389,1.143756,5.614584,16.432940,-0.296917,-0.319209,-0.073279,7.672000,10.298211

-2.782267,-0.010644,11.992521,16.432940,0.453708,0.147100,-0.066883,7.680000,10.298211

1.825751,0.765343,10.435759,16.438822,-0.146898,-0.521454,-0.268596,7.684000,10.298211

1.100060,4.080050,11.075230,16.435881,-0.080016,-0.023436,-0.107652,7.684000,10.298211

-0.926127,5.232054,9.202324,16.435881,0.281040,-0.100444,-0.118577,7.688000,10.298211

-0.542924,-1.430890,11.012959,16.447645,0.324474,-0.373568,0.053025,7.684000,10.298211

-5.083880,-5.334772,5.561894,16.429998,0.370305,-0.305087,0.179328,7.684000,20.495371

-1.759594,8.666512,11.822475,16.450586,-0.440007,0.165752,0.457248,7.688000,20.495371

0.860558,-2.896642,9.544811,16.427057,0.301558,-0.831084,0.483095,7.684000,20.495371

0.211507,4.171061,20.011047,16.418234,-0.393909,-0.049016,0.862005,7.684000,20.495371

2.146683,14.400189,9.872930,16.447645,1.274146,0.296852,0.698130,7.692000,20.495371

-5.706586,0.248018,8.148515,16.438822,0.245867,-0.315212,0.457248,7.676000,20.495371

-0.205226,-7.717816,9.386741,16.429998,-0.296117,-0.152137,0.566231,7.684000,20.495371

5.071002,4.159085,13.558865,16.438822,0.138483,-0.002652,0.560103,7.684000,20.495371

-0.624354,-0.551918,4.201523,16.429998,0.999956,0.235832,0.391965,7.688000,20.495371

-8.094420,1.378468,4.354804,16.447645,-0.436543,0.422356,0.225426,7.680000,20.495371

1.662889,-6.951410,7.130631,16.432940,-0.414693,-0.281105,0.298703,7.672000,20.495371

-0.210016,3.826177,14.490527,16.432940,-0.076552,0.643786,0.426872,7.680000,20.495371

1.940712,0.013306,11.702724,16.429998,0.063074,0.115391,0.142823,7.668000,40.084983

1.744320,2.544842,8.177256,16.421175,0.183515,0.078086,0.119374,7.672000,40.084983

-0.954867,3.924373,7.952123,16.441763,-0.071223,0.277933,0.070345,7.672000,40.084983

-0.729735,-1.155463,12.184123,16.432940,-0.246822,-0.093516,0.086333,7.664000,40.084983

0.419874,3.167547,15.882033,16.438822,-0.045643,0.258481,0.175597,7.664000,40.084983

1.488053,2.552027,7.329418,16.418234,0.346057,0.009605,0.063417,7.664000,40.084983

-0.241151,2.695728,7.461144,16.438822,0.031099,0.108197,0.011457,7.664000,40.084983

1.765875,-5.310822,10.586645,16.435881,-0.263076,0.200659,0.034905,7.668000,40.084983

-2.674491,-0.908776,8.435918,16.429998,-0.260678,0.226772,-0.301637,7.672000,40.084983

0.635426,10.654378,0.860470,16.421175,0.504869,0.378656,-0.516139,7.664000,40.084983

2.846029,2.638248,7.628796,16.435881,-0.030454,0.006141,-0.622991,7.676000,40.084983

1.986217,1.783226,12.569721,16.444704,0.325806,0.011204,-0.523334,7.672000,40.084983

-2.138007,-6.297570,15.436560,16.432940,-0.420555,-0.050882,-0.256605,7.668000,43.113549

1.181490,3.419024,12.402070,16.427057,0.447846,0.248356,-0.102856,7.684000,43.113549

-2.106871,9.820911,6.469606,16.424116,0.209629,0.173746,0.115643,7.676000,43.113549

-2.906808,5.222474,5.681645,16.409410,0.172324,-0.037026,0.336008,7.672000,43.113549

-1.795519,-7.708236,17.517832,16.427057,-0.417358,-0.398349,0.328014,7.668000,43.113549

-0.068710,6.676251,11.223721,16.429998,0.523521,-0.083124,0.376777,7.680000,43.113549

0.029486,8.130028,1.998105,16.421175,0.792648,-0.254725,0.266195,7.676000,43.113549

-4.461175,-8.180056,7.360553,16.403528,-0.837036,-0.248597,0.398627,7.672000,43.113549

-0.461493,3.260953,11.341076,16.427057,0.190443,0.219311,0.344801,7.660000,43.113549

-1.611102,-2.678696,11.547048,16.409410,-0.329958,0.038383,0.119907,7.660000,43.113549

2.678378,2.860985,8.981982,16.424116,-0.073621,0.056503,-0.022917,7.660000,43.113549

0.673746,-2.508649,11.082415,16.406469,0.277310,0.179875,-0.223297,7.664000,43.113549

-0.418383,2.705308,8.311377,16.412352,0.144878,0.218246,-0.303236,7.664000,43.113549

-1.436266,4.338712,11.834451,16.406469,-0.049639,0.308576,-0.539321,7.664000,43.113549

0.261803,2.221514,8.886181,16.403528,0.474226,-0.056744,-0.784200,7.668000,43.113549

0.965939,-0.310021,1.071232,16.421175,0.078263,-0.233675,-0.585153,7.672000,43.113549

-0.765660,-8.716539,11.657219,16.427057,-0.241759,0.309109,-0.162543,7.660000,43.113549

-4.516261,4.877591,14.052238,16.435881,0.236541,0.456197,-0.011726,7.672000,43.113549

3.432809,7.674974,2.292692,16.418234,0.198171,-0.384759,-0.250476,7.664000,43.113549

-2.743947,-4.405505,7.774892,16.415293,-0.294518,-0.142545,-0.086069,7.656000,43.113549

-2.140402,-1.241684,12.981665,16.412352,-0.231633,0.418625,-0.065285,7.660000,43.113549

-0.245941,4.762630,10.428574,16.424116,-0.178874,0.192665,-0.294709,7.672000,43.113549

2.620897,8.642562,5.767866,16.418234,0.471028,-0.139081,-0.561971,7.660000,43.113549

1.298846,-5.114430,9.465776,16.403528,-0.392843,-0.050082,-0.487894,7.660000,43.113549

-3.364257,4.331527,8.251501,16.412352,0.235742,0.439676,-0.526531,7.676000,43.113549

2.846029,3.095696,10.735136,16.403528,-0.424552,-0.140946,-0.634449,7.668000,43.113549

-0.959657,7.100169,6.982141,16.441763,0.386560,0.163887,-0.550513,7.672000,20.389109

0.762362,1.855076,12.531401,16.412352,0.108373,-0.361843,-0.599542,7.664000,20.389109

-0.799191,-3.272660,13.767231,16.409410,0.236541,-0.193972,-0.473239,7.660000,20.389109

-1.100963,4.985367,6.745033,16.415293,-0.064028,-0.011712,-0.026648,7.660000,20.389109

-3.057694,0.760553,7.207272,16.418234,-0.285992,-0.157467,0.116709,7.668000,20.389109

-2.969078,2.281390,10.785432,16.397646,0.124361,0.064230,0.129766,7.656000,20.389109

-1.421896,-6.568207,8.941267,16.400587,-0.490368,-0.324538,0.140424,7.664000,83.421984

0.685721,3.893238,14.370776,16.400587,-0.074953,0.029857,0.081803,7.664000,83.421984

0.491725,4.384217,5.516388,16.394705,0.367641,-0.201699,0.089530,7.668000,83.421984

-0.315397,-1.450051,4.783513,16.415293,-0.073088,-0.159865,0.235818,7.660000,83.421984

-1.599127,0.856353,14.136065,16.412352,-0.115989,-0.042355,0.113778,7.664000,83.421984

1.775455,1.091065,4.445815,16.394705,0.546171,-0.099378,0.045031,7.668000,83.421984

-1.026718,-3.210390,9.561577,16.409410,-0.816785,0.050641,0.205974,7.660000,83.421984

0.668956,6.175692,6.323510,16.406469,1.130523,0.330426,-0.059156,7.668000,83.421984

-5.984408,0.010911,8.550879,16.412352,-1.083780,-0.424995,-0.261667,7.660000,83.421984

5.672152,-0.183085,18.097427,16.412352,0.026302,0.256883,-0.128170,7.652000,83.421984

1.811381,0.916229,11.645244,16.424116,0.664214,0.025327,-0.394632,7.664000,83.421984

-4.250414,-0.257331,1.478385,16.412352,0.125959,-0.162796,-0.375713,7.660000,83.421984

-2.734366,9.971798,10.289662,16.418234,-0.343281,-0.083390,-0.247545,7.656000,83.421984

5.846989,-6.292780,4.036266,16.409410,0.100912,-0.278973,-0.351465,7.660000,83.421984

-2.296078,4.058495,10.071716,16.415293,-0.514616,-0.116964,-0.262200,7.660000,83.421984

-0.926127,-1.256054,7.401269,16.412352,0.200036,0.115391,-0.044501,7.652000,83.421984

-3.428922,2.070628,12.370934,16.409410,-0.600417,-0.199301,-0.138029,7.660000,83.421984

2.908299,3.550750,8.752060,16.403528,0.263454,-0.351984,-0.044767,7.656000,83.421984

-1.012347,1.402418,15.944304,16.397646,-0.016332,-0.211026,0.234752,7.664000,83.421984

-5.203631,-2.163766,9.089758,16.412352,0.728164,-0.026101,0.349597,7.664000,26.497823

-6.173615,0.590506,9.130473,16.400587,-0.499162,-0.313081,0.610464,7.672000,26.497823

0.443824,10.735809,3.181244,16.415293,0.216557,0.006408,0.711720,7.668000,26.497823

0.472565,-3.495397,5.693620,16.406469,-0.109061,-0.601926,0.687472,7.668000,26.497823

-2.700836,4.939862,10.337564,16.394705,0.387625,0.090876,0.815907,7.672000,26.497823

-0.593219,0.621641,12.593672,16.412352,0.334067,-0.454839,0.837490,7.676000,26.497823

-0.727340,-2.645165,1.969364,16.427057,0.079328,-0.466030,0.727708,7.664000,26.497823

-5.843102,-1.665602,13.772021,16.444704,-0.243091,0.152429,0.796455,7.676000,26.497823

3.447179,6.372084,10.907578,16.403528,-0.093339,0.241428,0.768743,7.672000,26.497823

0.359999,-4.276174,7.590475,16.400587,0.570952,-0.105240,0.431668,7.672000,26.497823

-3.979777,3.869288,5.559499,16.421175,-0.064295,0.417027,0.371181,7.680000,26.497823

4.045934,2.734049,6.172624,16.418234,-0.462656,-0.023436,0.204109,7.672000,26.497823

2.134708,3.447764,16.025734,16.415293,0.548036,0.039449,-0.054893,7.672000,43.608977

-0.063920,-1.109958,10.521979,16.400587,0.366841,0.178010,-0.058357,7.676000,43.608977

-3.742670,-6.462826,13.594790,16.400587,-0.681955,0.267008,-0.121775,7.676000,43.608977

-1.819469,13.169148,8.019184,16.409410,-0.113324,0.583033,-0.229958,7.668000,43.608977

6.812181,-0.116025,4.385939,16.391764,0.345791,-0.403678,-0.433003,7.664000,43.608977

-2.339188,-8.675824,10.632151,16.391764,0.045488,-0.089785,-0.276323,7.668000,43.608977

-2.552345,0.487520,13.645085,16.403528,-0.796800,0.826579,0.068480,7.668000,43.608977

4.857845,10.541813,8.067084,16.382940,0.251463,-0.082058,-0.407689,7.652000,43.608977

-2.061366,-7.016076,10.828542,16.403528,-0.434145,-0.264052,-0.298972,7.652000,43.608977

4.400397,0.377349,16.914288,16.409410,-0.353407,0.225174,-0.183061,7.660000,43.608977

0.834213,1.507799,4.821833,16.403528,0.461702,-0.142278,-0.640311,7.672000,43.608977

0.599501,0.918624,5.490043,16.377058,-0.351009,-0.127356,-0.459649,7.668000,43.608977

-1.002767,-2.669116,10.359118,16.385881,-0.064295,0.298451,-0.446592,7.672000,43.608977

-1.541647,-2.841557,8.500583,16.377058,-0.898589,-0.024502,-0.429539,7.668000,43.608977

3.660336,3.864498,12.588881,16.397646,-0.130910,0.337621,-0.383441,7.680000,43.608977

2.103573,2.542447,7.650351,16.382940,0.228281,-0.064205,-0.437000,7.672000,43.608977

-4.252809,-6.093993,9.769943,16.394705,0.265319,0.222775,-0.387438,7.676000,43.608977

-1.620682,4.970997,16.732265,16.394705,-0.518613,-0.133485,-0.358393,7.684000,43.608977

6.977437,6.829532,9.274175,16.394705,0.592002,-0.063405,-0.262467,7.684000,43.608977

-2.243387,-0.844111,9.123288,16.368235,0.497408,-0.024768,-0.252608,7.684000,43.608977

-7.189103,0.566556,11.539863,16.374117,-0.246022,0.189468,-0.226228,7.676000,43.608977

2.321520,7.840230,2.400468,16.388823,0.930143,-0.240336,-0.447925,7.680000,43.608977

-0.133375,-9.540426,9.911250,16.379999,-1.311073,-0.300290,-0.207043,7.660000,43.608977

-2.336793,-4.398319,15.949094,16.400587,0.044155,0.475382,-0.215303,7.668000,43.608977

-4.216884,4.671619,11.805710,16.379999,0.063874,0.187602,-0.412219,7.672000,43.608977

4.074674,4.827296,4.409890,16.397646,0.402014,-0.752744,-0.385839,7.664000,43.608977

-1.745224,-5.171911,8.002419,16.391764,0.183782,0.040782,-0.145490,7.668000,43.608977

-4.082763,2.544842,14.284555,16.379999,-0.446136,0.255550,-0.064485,7.676000,43.608977

1.902391,3.584280,8.965217,16.379999,0.155270,-0.055411,-0.041037,7.680000,43.608977

-1.462611,3.593861,12.442785,16.385881,0.028967,-0.442848,-0.135631,7.676000,43.608977

2.046093,3.284903,10.483660,16.374117,0.141947,0.074622,0.056755,7.680000,43.608977

-1.706903,-1.234499,11.206955,16.385881,0.007650,-0.143610,-0.011992,7.676000,43.608977

-0.863856,4.511153,8.479028,16.374117,0.287969,-0.317344,0.032774,7.672000,43.608977

2.304755,0.243228,8.155700,16.379999,0.186713,-0.511329,0.192385,7.668000,43.608977

-5.656291,-0.274096,0.781435,16.379999,0.220021,-0.140413,0.383438,7.672000,43.608977

-4.743788,3.924373,7.552155,16.377058,-0.472249,-0.238738,0.531858,7.664000,43.608977

2.503541,2.005963,17.891455,16.382940,0.405745,-0.137482,0.596342,7.680000,14.126470

0.635426,-1.409335,9.413086,16.374117,-0.005940,-0.413803,0.598473,7.680000,14.126470

-4.868329,1.170101,1.167033,16.377058,0.685797,-0.181981,0.595542,7.676000,14.126470

-2.552345,7.471397,7.458749,16.394705,-0.616405,-0.353050,0.890250,7.684000,14.126470

6.733146,4.171061,6.191784,16.371176,0.428394,-0.274177,1.126336,7.672000,14.126470

-6.458622,-5.042580,13.441508,16.359411,-0.626797,-0.124425,1.261432,7.668000,14.126470

-3.038534,7.813886,13.407978,16.382940,0.547237,0.053838,1.281683,7.676000,14.126470

-0.504603,4.982972,2.508244,16.377058,0.033230,-0.284036,1.090896,7.676000,14.126470

0.920433,0.470755,10.787827,16.374117,-0.583364,-0.140146,1.117276,7.660000,14.126470

-0.847091,-4.333654,13.954042,16.374117,0.071867,-0.001053,1.114078,7.664000,14.126470

-3.230135,2.099368,11.860796,16.379999,-0.357670,0.154827,1.049061,7.668000,14.126470

1.976637,2.652618,8.567643,16.371176,0.302357,-0.095914,0.767411,7.680000,49.153415

2.228114,-5.171911,4.649392,16.374117,0.266918,-0.286967,0.703460,7.676000,49.153415

-1.338070,4.070470,10.440549,16.368235,-0.202855,0.992852,0.770875,7.680000,49.153415

4.127365,8.319234,9.008327,16.371176,-0.208185,0.534803,0.433000,7.676000,49.153415

4.386026,-0.063334,11.496753,16.388823,0.300226,0.665903,-0.418347,7.688000,49.153415

4.812340,10.927411,0.398232,16.377058,0.409475,0.325363,-1.086102,7.688000,49.153415

3.272343,-0.329181,9.537626,16.362352,-0.622534,0.543863,-1.219867,7.668000,49.153415

3.650755,-1.421310,11.623689,16.377058,0.245068,0.513752,-1.299805,7.668000,49.153415

-0.952472,-4.812658,14.313295,16.379999,-0.104264,0.436212,-1.328583,7.680000,49.153415

4.122574,7.993512,10.241762,16.382940,0.258125,0.324564,-1.280087,7.680000,49.153415

3.207677,7.761195,5.118815,16.377058,0.176321,0.243559,-0.758354,7.668000,49.153415

-0.404013,-0.321996,7.535390,16.365294,0.237874,0.057835,-0.555309,7.668000,49.153415

-2.842142,3.081326,11.350657,16.371176,-0.385116,0.095406,-0.324286,7.680000,38.829886

1.471288,10.999261,6.000182,16.371176,0.397218,0.091942,-0.107386,7.676000,38.829886

-3.484008,-3.078664,5.997787,16.391764,-0.936960,-0.379163,-0.000001,7.676000,38.829886

2.601737,5.785304,10.763877,16.362352,0.003120,0.457529,0.201178,7.680000,38.829886

3.693866,-9.502106,37.820412,16.374117,-1.111759,-0.214756,0.240881,7.684000,38.829886

6.896007,0.310289,13.108601,16.374117,1.095883,0.541997,-0.070081,7.700000,38.829886

-5.914952,6.451119,4.953559,16.368235,0.833417,0.238230,-0.102323,7.700000,38.829886

-5.838312,8.041412,0.676054,16.368235,-0.059499,-0.394352,-0.074078,7.688000,38.829886

0.855768,1.368887,13.077465,16.359411,-0.456528,-0.157467,-0.050629,7.680000,38.829886

4.318966,-4.994679,11.077624,16.362352,0.468364,-0.095647,-0.051162,7.688000,38.829886

-4.511471,2.741234,3.154899,16.377058,0.043089,0.042114,0.152682,7.688000,38.829886

0.616266,-2.123051,10.244158,16.371176,0.013512,-0.199301,0.290976,7.680000,38.829886

-2.511630,-0.733940,4.773932,16.374117,0.315414,-0.100444,0.254470,7.684000,38.829886

-2.549950,-1.062057,10.821357,16.362352,-0.403502,-0.161197,0.369049,7.680000,38.829886

0.894088,1.019215,19.347626,16.371176,0.300226,0.212383,0.672284,7.680000,38.829886

3.083136,6.364898,6.687553,16.374117,0.352985,0.151097,0.689604,7.692000,38.829886

-3.730695,13.449367,1.425695,16.371176,1.001289,0.225707,0.428470,7.684000,38.829886

-0.614774,-0.705199,13.293017,16.371176,-0.197793,-0.291764,0.305898,7.692000,38.829886

0.019906,-9.995480,15.817368,16.379999,-1.191698,0.032788,0.337873,7.680000,38.829886

5.748793,11.564486,8.021579,16.362352,0.690593,0.459128,0.166538,7.676000,38.829886

-2.272128,-2.295492,6.747428,16.368235,-0.363532,-0.227280,-0.131900,7.656000,38.829886

-3.048114,0.758158,10.227392,16.362352,-0.298249,0.256083,-0.310697,7.648000,38.829886

2.532281,-5.351537,7.247987,16.362352,-0.620935,-0.083390,-0.367453,7.648000,38.829886

-1.951195,0.039652,11.580578,16.341763,-0.559382,0.354674,-0.352798,7.648000,38.829886

-0.334557,3.675291,10.751902,16.365294,0.382563,0.484175,-0.487361,7.652000,21.859374

1.301241,6.118211,7.456354,16.356470,0.247999,-0.065271,-0.584354,7.664000,21.859374

-2.995424,0.152218,1.511916,16.359411,0.167527,0.007207,-0.431937,7.664000,21.859374

-0.744105,-0.860876,11.499147,16.347647,0.261056,-0.123093,-0.441530,7.668000,21.859374

-1.556017,6.951678,11.513517,16.341763,-0.200990,0.246224,-0.161478,7.672000,21.859374

3.689076,-0.190270,4.587121,16.356470,-0.403768,-0.201699,-0.163076,7.672000,21.859374

-1.821864,3.629786,12.952925,16.359411,-0.034185,0.338953,-0.144690,7.680000,21.859374

-2.188302,1.450318,14.200729,16.356470,0.067871,0.267808,-0.240084,7.680000,21.859374

-2.602640,-4.163608,2.285507,16.350588,0.167794,-0.100710,-0.546782,7.680000,21.859374

-2.164352,-0.633349,10.931528,16.353529,-0.501293,-0.069800,-0.450589,7.676000,21.859374

-2.648146,5.038058,7.109076,16.362352,0.172324,0.083682,-0.411419,7.676000,21.859374

0.570760,-5.294057,9.180769,16.362352,-0.507422,0.120720,-0.211839,7.672000,21.859374

-2.511630,10.446012,9.477751,16.356470,0.026036,0.236365,-0.392767,7.668000,21.859374

1.447338,-9.200334,19.558388,16.356470,-0.300114,-0.601659,-0.522534,7.664000,21.859374

-5.673056,-0.230986,20.166723,16.353529,0.360446,0.135642,-0.462314,7.672000,21.859374

6.443348,7.009159,4.754772,16.359411,1.056713,-0.175852,-0.673352,7.676000,21.859374

-3.311566,-1.404545,2.802831,16.353529,-0.800531,-0.249929,-0.368785,7.672000,21.859374

0.616266,5.107513,8.804750,16.362352,0.024704,0.450334,-0.206510,7.660000,21.859374

-2.255363,-1.038107,11.853611,16.350588,-0.068558,-0.154802,-0.486828,7.672000,21.859374

-2.133217,0.844378,9.087363,16.353529,0.124893,-0.231543,-0.550246,7.672000,21.859374

-2.327213,-4.314494,11.118340,16.335880,-0.724589,-0.292829,-0.429006,7.676000,21.859374

-2.863698,-0.417797,18.015995,16.341763,-0.169281,-0.121761,-0.268596,7.680000,21.859374

-3.194210,0.631221,13.954042,16.327057,0.074799,-0.279240,-0.193986,7.672000,21.859374

4.596788,5.267980,7.324628,16.353529,0.650091,-0.285102,0.054357,7.668000,21.859374

-1.807494,-1.301559,9.111313,16.347647,-0.190332,-0.161463,0.382639,7.680000,21.859374

-3.682794,7.346857,8.725715,16.344706,0.339396,-0.339194,0.417279,7.676000,21.859374

-0.626749,-1.371015,10.967453,16.359411,-0.241759,-0.404744,0.508409,7.676000,21.859374

-0.030389,3.550750,11.388977,16.350588,0.279975,-0.089519,0.640841,7.680000,21.859374

-4.401300,0.813243,7.940148,16.347647,-0.483440,-0.201433,0.502813,7.680000,21.859374

0.601896,5.871524,11.714700,16.338821,0.119831,-0.057543,0.544382,7.676000,21.859374

2.448456,4.741075,9.877720,16.324116,0.414538,-0.348787,0.329080,7.680000,21.859374

-0.487838,-2.254777,6.318720,16.341763,0.086523,-0.321874,0.272590,7.684000,21.859374

-3.076854,1.309012,8.617939,16.318233,-0.465587,0.239030,0.389833,7.676000,21.859374

3.159777,1.244346,12.109878,16.329998,-0.074420,-0.134817,0.266728,7.684000,21.859374

-1.345255,5.634418,7.865902,16.318233,0.641831,0.087679,0.031441,7.676000,21.859374

1.344352,-5.885626,8.867022,16.315292,-0.448267,-0.051681,0.078072,7.684000,21.859374

1.706000,4.920702,10.890813,16.335880,0.020440,0.157492,0.187322,7.676000,21.859374

-4.293524,-4.017511,11.036909,16.312351,-0.140237,-0.019972,-0.022118,7.668000,21.859374

-0.993187,8.704832,9.305309,16.335880,0.164596,0.517217,0.075408,7.680000,21.859374

-2.018256,-1.145883,6.907895,16.327057,-0.568708,-0.261120,-0.009061,7.672000,21.859374

2.731068,3.057376,12.627202,16.335880,-0.183404,-0.031963,0.149218,7.660000,21.859374

1.018629,-0.719570,7.758127,16.327057,0.188578,0.025860,0.119374,7.672000,21.859374

-1.896110,1.218001,4.872128,16.321175,-0.579100,-0.142545,0.269392,7.664000,21.859374

1.052159,-1.838044,21.237297,16.338821,0.178452,0.171881,0.319487,7.676000,21.859374

1.488053,2.925650,7.121051,16.327057,0.536578,0.365066,0.164406,7.680000,21.859374

-4.698283,3.953113,2.251977,16.324116,-0.215646,-0.167859,0.132431,7.676000,21.859374

4.386026,-0.911171,16.380198,16.306469,-0.172212,-0.157999,0.226758,7.672000,21.859374

1.595829,6.158927,8.804750,16.329998,0.759874,0.284328,0.014388,7.684000,21.859374

-3.512748,-1.861994,8.687394,16.318233,-0.131976,-0.359978,-0.003732,7.684000,10.837255

