ax,ay,az,gx,gy,gz,temp,volt,vel

-1.893715,1.263507,9.429851,19.571175,0.018308,-0.013843,-0.460715,2.656000,0.000000

-1.582362,1.804781,9.559182,19.600588,0.056146,-0.075130,-0.721848,2.556000,0.000000

-1.002767,3.809412,9.757969,19.612352,0.030033,-0.100177,-0.596611,2.520000,0.000000

-1.838629,2.324500,8.596384,19.618235,0.063341,0.002677,-0.395965,2.484000,0.000000

-0.926127,1.826336,9.961545,19.627058,-0.012601,-0.086055,-0.303236,2.456000,0.000000

-0.720155,2.647828,9.719648,19.638823,0.034296,-0.053280,-0.240883,2.420000,0.000000

-0.964447,1.057535,9.266990,19.632940,0.041491,-0.018906,-0.289380,2.384000,0.000000

-2.466124,0.827613,9.480146,19.624117,0.018841,-0.001852,-0.377312,2.352000,0.000000

-2.087711,2.484967,9.096943,19.638823,0.033497,0.016800,-0.436467,2.316000,0.000000

-1.936825,2.666988,9.480146,19.629999,-0.010203,0.041847,-0.397297,2.280000,0.000000

-2.526000,2.034703,9.374765,19.647646,0.024437,-0.004784,-0.311762,2.252000,0.000000

-2.549950,2.049073,9.403505,19.671175,0.016976,-0.029565,-0.202246,2.208000,0.000000

-2.954708,1.608389,9.484936,19.668234,0.019108,-0.038091,-0.122308,2.176000,0.000000

-2.444569,1.823941,9.489726,19.656469,0.033763,-0.067669,-0.060222,2.144000,0.000000

-2.130822,1.905372,9.401111,19.679998,0.037227,-0.059142,0.023181,2.112000,0.000000

-1.903295,2.173614,9.477751,19.653528,0.034030,-0.069001,0.096725,2.084000,0.000000

-1.680558,2.346056,9.401111,19.682940,0.028434,-0.064471,0.134296,2.056000,0.000000

-1.630263,2.405931,9.326865,19.706469,0.018042,-0.055944,0.139625,2.024000,0.000000

-1.340465,2.532867,9.180769,19.682940,0.009249,-0.047950,0.146553,1.992000,0.000000

-1.062643,2.281390,9.441826,19.700586,-0.004074,-0.033561,0.136694,1.964000,0.000000

-1.041088,2.135294,9.568762,19.703527,-0.005140,-0.026900,0.078605,1.936000,0.000000

-0.724945,2.142479,9.439431,19.700586,-0.017930,0.000279,0.002130,1.900000,0.000000

-0.978817,2.108948,9.446616,19.694704,-0.017131,0.015734,-0.042635,1.876000,0.000000

-1.151259,1.943692,9.465776,19.706469,-0.033119,0.016800,-0.106586,1.844000,0.000000

-1.579967,1.792806,9.422666,19.715292,-0.021661,0.025593,-0.165741,1.812000,0.000000

-1.613497,1.737720,9.547207,19.712351,-0.022194,0.022396,-0.196917,1.788000,0.000000

-2.109267,1.483848,9.379556,19.727058,-0.022993,0.024527,-0.213971,1.760000,0.000000

-2.799032,1.055140,9.367580,19.712351,-0.014466,0.007207,-0.190788,1.732000,0.000000

-2.502050,0.873118,9.523256,19.709410,0.000189,-0.025568,-0.196384,1.708000,0.000000

-2.332003,0.858748,9.607082,19.730000,0.027368,-0.024235,-0.228093,1.684000,0.000000

-2.207462,0.358189,9.496911,19.715292,0.038293,-0.024235,-0.290712,1.656000,0.000000

-2.183512,1.364097,9.420271,19.732941,0.074799,-0.053546,-0.335478,1.624000,0.000000

-1.647028,2.609508,9.444221,19.732941,0.052416,-0.036226,-0.274724,1.600000,0.000000

-2.279313,2.686148,9.762758,19.732941,0.072134,-0.050882,-0.188390,1.576000,0.000000

-2.602640,3.605836,9.657377,19.750587,0.031365,0.014402,-0.099925,1.536000,0.000000

-1.903295,2.877750,9.451406,19.744705,0.037494,-0.048217,-0.030645,1.512000,0.000000

0.508490,0.197723,9.669353,19.777058,-0.043777,-0.151604,0.045031,1.484000,0.000000

-1.750014,1.644315,9.894485,19.762352,0.040425,0.098870,0.072210,1.464000,0.000000

-3.610944,2.968760,9.504096,19.782940,-0.026724,-0.021304,0.038103,1.428000,0.000000

-2.334398,1.467083,9.202324,19.768234,-0.000610,-0.016241,0.025313,1.396000,0.000000

-2.226622,1.196446,9.908854,19.777058,0.032431,-0.041822,0.010391,1.376000,0.000000

-0.550109,1.639525,9.084968,19.771175,0.016710,-0.061540,0.038636,1.348000,0.000000

-1.627867,1.546119,9.204719,19.809410,0.026302,-0.018906,0.079404,1.328000,0.000000

-2.518815,3.028636,9.734018,19.788822,0.012180,0.057302,0.091395,1.304000,0.000000

-0.703390,2.621483,9.216694,19.794704,0.009782,-0.007715,0.124170,1.284000,0.000000

-0.272286,0.798873,8.840676,19.812351,0.047886,-0.145742,0.166005,1.268000,0.000000

-2.281708,1.646710,10.133986,19.794704,0.015377,0.014935,0.127101,1.252000,0.000000

-2.197882,2.513707,9.250224,19.809410,0.061475,-0.093249,0.042366,1.220000,0.000000

-1.280590,3.241793,8.615544,19.812351,0.014844,-0.041022,-0.011193,1.200000,0.000000

-1.632658,2.786739,8.823911,19.818233,0.043889,-0.103641,-0.017055,1.188000,0.000000

-0.825536,3.718402,9.348420,19.824116,0.013512,-0.028232,-0.089000,1.172000,0.000000

-1.738038,3.385494,9.209509,19.815292,0.010048,-0.034361,-0.110850,1.156000,0.000000

-1.469796,4.094420,9.094548,19.815292,0.068936,-0.067402,-0.064752,1.144000,0.000000

-1.757199,2.185589,9.022697,19.824116,0.024437,-0.016241,-0.095128,1.128000,0.000000

-1.647028,3.591465,9.293335,19.838821,0.017509,-0.050615,-0.161478,1.120000,0.000000

-2.473310,1.773646,9.149633,19.850588,-0.019796,-0.009047,-0.204645,1.104000,0.000000

-1.690138,3.349569,9.278965,19.841763,-0.070157,-0.051148,-0.206776,1.132000,0.000000

-2.286498,3.684871,10.050160,19.841763,0.111304,-0.037558,-0.213971,1.144000,0.000000

-1.790729,1.902977,8.347301,19.841763,0.026036,-0.045286,-0.230758,1.220000,0.000000

-1.812284,1.924532,7.973679,19.859411,-0.031520,-0.092183,-0.183860,1.440000,0.000000

-2.391879,2.753209,9.631032,19.865294,-0.139970,-0.036226,-0.074611,1.412000,0.000000

-2.533185,2.231094,10.078901,19.879999,-0.000077,0.004010,-0.022651,1.388000,0.000000

-3.610944,1.958062,9.463381,19.865294,0.058811,-0.050349,-0.092197,1.408000,0.000000

-3.249296,1.752090,10.627360,19.871176,0.071335,-0.079393,-0.173202,1.448000,0.000000

-2.451754,1.965247,8.558064,19.868235,-0.013134,-0.181182,-0.131101,1.440000,0.000000

-1.496141,-0.530363,8.457473,19.879999,-0.098935,-0.077261,-0.015190,1.456000,0.000000

-1.400341,1.780831,10.586645,19.888823,0.109972,-0.161463,0.040235,1.428000,0.000000

0.170792,9.646075,8.261081,19.891764,0.300226,-0.093516,0.079937,1.452000,0.000000

-8.257281,-0.511203,10.289662,19.897646,0.206697,-0.243800,0.280584,2.968000,0.000000

4.486618,4.848851,9.053833,19.915293,-0.268672,0.027192,0.775937,2.916000,0.000000

-5.392838,3.581886,9.164003,19.888823,0.212560,0.251020,0.605135,3.892000,0.000000

-2.104476,4.982972,7.386899,19.915293,0.140348,-0.328269,0.406354,4.512000,0.000000

1.080899,3.866893,8.522139,19.906469,-0.058433,-0.171323,0.490023,4.444000,0.000000

-0.372877,3.124437,10.979428,19.924116,0.056946,-0.081791,0.695466,4.876000,0.000000

-1.072223,1.735325,9.884905,19.909410,0.039359,-0.072465,0.670685,5.072000,0.000000

-2.490075,2.702913,9.659773,19.921175,-0.014466,-0.048483,0.518002,5.112000,0.000000

-1.829049,2.312525,9.635822,19.938822,0.115034,-0.045552,0.762614,5.556000,0.000000

-2.363138,3.335198,8.251501,19.932940,-0.040313,0.011204,0.722911,5.592000,0.000000

-2.475704,3.890843,7.827582,19.918234,0.031365,-0.001053,0.650967,5.940000,0.000000

-2.008676,5.476346,9.686118,19.929998,0.106508,-0.043954,0.495352,6.228000,0.000000

-1.426686,2.499337,9.252620,19.924116,-0.052837,-0.098578,0.321885,6.416000,0.000000

-1.623077,1.464688,10.229787,19.929998,0.187246,-0.002119,0.310694,6.708000,0.000000

-1.857789,3.670501,6.630073,19.924116,0.208829,-0.105240,0.227824,7.044000,0.000000

-1.656608,5.222474,10.258528,19.912352,-0.057900,-0.115632,0.300835,7.036000,0.000000

-0.921337,3.639366,10.476475,19.927057,0.202967,-0.016508,0.692801,7.116000,0.000000

-2.504445,1.404813,7.497069,19.924116,0.051083,-0.061274,0.872930,7.124000,0.000000

-1.934430,1.852681,10.102851,19.929998,0.198437,-0.189975,0.912899,7.164000,0.000000

0.386344,2.243070,11.724279,19.929998,0.219754,-0.151071,1.108216,7.176000,0.000000

-2.078131,0.525841,6.951005,19.935881,0.156070,-0.005316,1.167904,7.160000,0.000000

-3.105594,2.537657,10.004656,19.953527,0.160866,-0.039157,1.222795,7.132000,0.000000

-0.978817,3.953113,11.872770,19.932940,0.218955,-0.098845,1.095959,7.128000,0.000000

-1.821864,3.380704,6.795329,19.956469,0.366042,0.009605,0.859340,7.136000,0.000000

-1.972750,4.068075,8.091035,19.947645,-0.285992,-0.103375,0.650700,7.136000,0.000000

-0.346532,4.113580,9.523256,19.944704,-0.021661,0.066628,0.451653,7.148000,0.000000

1.808985,5.416471,9.135263,19.938822,0.062008,-0.059408,0.220097,7.184000,0.000000

1.147960,4.803346,11.027328,19.932940,-0.048574,0.096739,-0.018920,7.212000,0.000000

1.011444,3.584280,9.499307,19.950586,0.063074,0.108996,-0.057824,7.204000,0.000000

2.367025,4.269256,5.849296,19.962351,-0.100800,0.116990,-0.077009,7.224000,0.000000

0.177977,1.074300,9.587922,19.977058,-0.154626,0.210518,-0.063952,7.220000,0.000000

1.186280,4.214171,10.349538,19.971176,0.076131,0.143636,-0.076210,7.252000,0.000000

-0.552504,5.320670,9.791499,19.971176,-0.077884,0.264077,-0.218234,7.252000,0.000000

-1.527277,3.169942,8.263476,19.971176,-0.234031,0.126849,-0.149487,7.244000,0.000000

-1.953590,4.959022,8.567643,19.977058,-0.138904,0.184405,-0.099392,7.272000,0.000000

5.475760,4.724310,12.263159,19.965292,-0.062430,-0.040490,-0.147622,7.272000,0.000000

-0.935707,-1.009367,10.907578,19.968235,0.338596,-0.053280,-0.080739,7.292000,0.000000

-4.992870,2.492151,5.099655,19.959410,-0.414693,0.232102,0.073276,7.268000,0.000000

-1.412316,-2.542179,8.974797,19.950586,-0.083214,0.075688,0.140957,7.280000,0.000000

1.061739,5.416471,12.411650,19.950586,-0.311039,0.180941,0.343202,7.268000,0.000000

3.138221,-2.283517,9.154424,19.927057,-0.088543,0.199327,0.363986,7.264000,0.000000

-1.158444,6.570870,7.774892,19.938822,0.332734,0.486840,0.312293,7.252000,0.000000

-2.899623,-0.997392,7.683881,19.915293,-0.495431,0.168151,-0.127370,7.260000,0.000000

2.077228,5.751773,11.980547,19.921175,0.024970,0.158025,-0.633383,7.260000,0.000000

1.842516,4.319552,7.959308,19.903528,-0.166616,0.361336,-0.848951,7.272000,0.000000

-0.859066,2.702913,7.542575,19.915293,-0.179673,0.150564,-1.037073,7.296000,0.000000

2.800524,0.106712,7.348578,19.912352,-0.181272,0.064497,-1.026148,7.268000,0.000000

-4.034862,1.986803,9.587922,19.894705,0.345258,0.274469,-0.803919,7.300000,0.000000

-3.862421,0.695887,10.418994,19.903528,-0.517548,0.319768,-1.176700,7.284000,0.000000

-1.898505,-0.195060,11.115945,19.885881,-0.111192,0.178276,-1.225995,7.268000,0.000000

-1.371600,6.525365,5.997787,19.882940,0.281040,0.002677,-1.474871,7.316000,0.000000

2.604132,0.130662,8.967612,19.877058,-0.529538,-0.293362,-1.570531,7.276000,0.000000

2.520306,-5.428178,15.697617,19.888823,0.107040,0.306178,-1.488727,7.292000,0.000000

-6.798715,2.901700,6.673183,19.885881,0.367108,0.414362,-1.244115,7.272000,0.000000

-2.329608,6.889408,7.777287,19.885881,-0.288123,-0.392486,-1.267030,7.276000,0.000000

0.350419,0.731812,6.730663,19.885881,0.002587,-0.021304,-1.113015,7.292000,0.000000

-3.419342,6.666671,8.529324,19.891764,0.371904,-0.077261,-0.847086,7.324000,0.000000

0.827027,2.678963,7.528205,19.885881,0.009515,-0.195038,-0.699199,7.320000,0.000000

-3.107990,2.195169,9.403505,19.894705,0.112103,-0.153203,-0.610467,7.324000,0.000000

-2.882858,1.450318,11.908696,19.915293,0.140615,-0.231277,-0.402626,7.324000,0.000000

-1.735643,3.095696,9.738809,19.909410,0.148342,-0.186777,-0.133765,7.344000,0.000000

-4.149823,6.350528,7.109076,19.903528,0.125426,-0.194238,0.201711,7.344000,0.000000

-1.761989,3.237003,7.032436,19.921175,-0.010736,-0.125225,0.589680,7.340000,0.000000

-3.855236,-1.993720,10.701606,19.915293,-0.115722,-0.226480,0.765812,7.332000,0.000000

-5.158126,2.798714,8.543694,19.924116,0.357515,-0.036226,0.945408,7.356000,0.000000

-4.339030,4.937467,7.734177,19.932940,0.012713,-0.095914,1.162308,7.360000,0.000000

-4.856354,0.952154,10.337564,19.932940,-0.149296,-0.301889,1.222262,7.352000,0.000000

-2.607430,-0.877641,9.884905,19.944704,0.113169,-0.330134,1.039469,7.360000,0.000000

-4.657568,10.728624,11.556628,19.935881,0.102244,0.135109,1.057855,7.364000,0.000000

1.325192,-5.104850,9.587922,19.929998,-0.666234,-1.069035,0.976850,7.372000,0.000000

-0.138165,6.362504,8.229946,19.947645,0.780125,0.264077,1.016553,7.376000,0.000000

-4.030072,2.940020,12.658337,19.938822,-0.274534,-0.301090,0.984311,7.380000,0.000000

-0.001649,2.882540,6.867179,19.953527,0.267717,-0.275243,1.091429,7.376000,0.000000

0.910853,-1.998510,13.879797,19.956469,-0.059232,0.055171,0.832428,7.380000,0.000000

-0.013624,4.357872,8.349697,19.962351,0.362045,0.072491,0.259000,7.392000,0.000000

0.422269,-1.308744,15.103652,19.959410,-0.270270,-0.189709,-0.066883,7.384000,0.000000

1.176700,0.715047,12.655942,19.956469,0.205099,-0.005316,-0.148954,7.392000,0.000000

2.848424,7.490558,8.840676,19.956469,0.499540,0.115658,-0.315759,7.388000,0.000000

-0.684230,-3.176860,4.515270,19.950586,0.130489,-0.236339,-0.228093,7.376000,0.000000

-0.502208,4.010594,7.458749,19.962351,0.077463,0.178543,-0.104188,7.376000,0.000000

-3.555858,-2.740966,12.054792,19.965292,-0.259345,-0.219552,-0.209174,7.360000,0.000000

0.582735,7.607914,13.685801,19.982941,-0.141036,-0.064205,-0.326151,7.360000,0.000000

4.817130,3.426209,5.070915,19.962351,0.311950,-0.071133,-0.392501,7.376000,0.000000

-0.037575,5.256004,6.543852,19.980000,-0.103465,-0.086854,-0.431937,7.368000,0.000000

-0.202831,-0.072914,12.902629,19.974117,-0.350209,-0.066070,-0.404758,7.356000,0.000000

2.881954,5.900265,10.713581,19.971176,0.269583,0.096472,-0.405024,7.380000,0.000000

-1.009952,3.648946,5.015829,19.968235,0.197105,-0.088719,-0.367986,7.376000,0.000000

-3.939061,6.158927,5.497228,19.980000,-0.164485,-0.182780,-0.319756,7.388000,0.000000

-0.377667,1.416788,9.295730,19.980000,-0.218843,-0.309084,-0.222764,7.388000,0.000000

-1.579967,6.762472,11.824870,19.962351,-0.148231,0.025327,-0.135098,7.396000,0.000000

0.791102,2.360425,8.162886,19.991764,-0.009937,-0.210493,-0.271527,7.400000,0.000000

-0.083080,4.966207,7.995234,19.994705,0.081460,-0.112168,-0.045566,7.416000,0.000000

-1.594337,2.446646,7.219247,20.000587,-0.139970,-0.026101,0.080470,7.416000,0.000000

-1.225504,-1.081218,13.199612,19.994705,0.082792,-0.197169,0.185723,7.420000,0.000000

0.973124,12.520099,9.401111,19.982941,0.076930,0.018399,0.184391,7.420000,0.000000

2.405345,-2.752941,6.366621,19.982941,0.163797,-0.459369,0.270991,7.416000,0.000000

-4.339030,0.602481,14.164804,20.003529,-0.482641,-0.046618,0.427138,7.412000,0.000000

0.563575,1.352122,8.847861,19.994705,0.566688,0.186803,0.430602,7.412000,0.000000

-1.294960,2.743629,5.384662,19.997646,-0.077352,-0.088986,0.323751,7.412000,0.000000

-1.656608,-0.994997,13.031960,19.994705,-0.344880,-0.143877,0.575291,7.420000,0.000000

0.556390,5.780514,10.874047,19.997646,0.483818,0.107397,0.880391,7.416000,0.000000

1.035394,-1.636862,7.125842,19.997646,-0.172479,-0.198235,0.949671,7.412000,0.000000

-2.849328,6.384058,13.376842,19.988823,0.415870,0.369863,1.052526,7.416000,0.000000

2.201769,3.232213,4.704477,20.003529,0.469163,-0.011978,1.050660,7.400000,0.000000

-4.281549,-2.867902,12.821198,20.006470,-0.176742,-0.014376,1.155380,7.400000,0.000000

2.774179,0.664752,10.596226,20.000587,-0.045110,0.031722,1.243579,7.392000,0.000000

-2.947523,2.243070,9.379556,20.012352,0.279175,0.304579,1.253438,7.392000,0.000000

-4.130663,2.336475,8.306586,20.012352,-0.161287,-0.131620,1.107683,7.396000,0.000000

2.838844,2.552027,10.572275,19.985882,0.056413,0.110861,1.017885,7.400000,0.000000

2.814894,4.305182,4.424260,19.988823,-0.353940,0.179076,0.905438,7.404000,0.000000

-2.212252,2.087393,17.314255,19.988823,-0.091741,0.721327,0.742896,7.412000,0.000000

0.860558,7.665394,8.495793,19.985882,0.137950,0.317903,0.141490,7.420000,0.000000

0.494120,7.052269,12.713423,20.000587,-0.043511,0.334157,-0.206243,7.436000,0.000000

2.249669,10.077179,3.451882,19.962351,0.061475,0.665903,-0.403426,7.444000,0.000000

-0.471073,-6.762204,10.495634,19.965292,-0.608944,0.367731,-0.542785,7.436000,14.968012

1.782640,13.947530,11.197375,19.974117,0.331935,0.909449,-0.829765,7.452000,14.968012

-0.188461,-4.690512,5.858876,19.974117,-0.182338,0.125250,-0.970724,7.440000,14.968012

-3.986962,9.078456,7.638376,19.950586,-0.033652,0.584898,-0.937150,7.440000,14.968012

-1.179999,-0.971047,11.817685,19.950586,0.177120,0.143103,-0.928357,7.452000,14.968012

-3.400182,1.562884,8.459867,19.950586,-0.402436,0.021063,-0.641909,7.444000,14.968012

2.786154,-2.575710,11.621294,19.927057,-0.168748,-0.060474,-0.485762,7.444000,14.968012

-2.497260,-2.575710,10.141171,19.935881,0.355384,-0.083124,-0.316026,7.448000,14.968012

-5.332963,3.651341,5.638535,19.944704,-0.296117,-0.249130,-0.153484,7.432000,14.968012

-0.732130,6.458304,15.407820,19.968235,0.108373,0.201192,0.184391,7.440000,14.968012

2.604132,1.771251,10.538745,19.971176,0.174988,-0.409274,0.219031,7.440000,14.968012

1.167120,1.605994,8.189230,19.962351,0.102511,-0.176119,0.323751,7.432000,14.968012

-5.091066,0.750972,10.536350,19.950586,-0.095471,-0.110303,0.282449,7.432000,14.968012

3.885468,7.603124,6.196574,19.962351,0.290900,-0.352784,0.344002,7.444000,14.968012

2.611317,-3.713344,9.396320,19.971176,-0.240693,-0.337595,0.503346,7.436000,14.968012

-0.063920,6.841507,12.531401,19.947645,-0.078684,0.300582,0.526795,7.436000,14.968012

-2.434989,3.613021,9.808264,19.971176,0.143279,0.075422,0.439662,7.440000,14.968012

2.915485,5.454791,5.753495,19.971176,0.216290,-0.342924,0.285913,7.440000,14.968012

-1.103358,-4.072597,13.987573,19.956469,-0.556984,-0.127090,0.374911,7.444000,14.968012

-1.309330,9.993353,10.775852,19.959410,-0.093339,0.223308,0.233420,7.436000,14.968012

1.717975,0.145033,8.845466,19.956469,0.054281,0.008540,0.083135,7.444000,14.968012

-0.037575,3.134017,10.589040,19.971176,-0.123716,0.076221,0.124970,7.440000,14.968012

2.041302,4.010594,7.154582,19.956469,0.728431,0.168684,0.021049,7.456000,14.968012

-2.530790,-2.132631,5.300837,19.968235,-0.749370,0.106598,0.092461,7.444000,14.968012

0.242643,3.459739,13.807946,19.968235,-0.291054,0.297651,0.188921,7.444000,14.968012

4.101019,5.526641,12.533796,19.924116,0.210161,0.094607,-0.067150,7.444000,14.968012

-0.636329,-1.893129,9.551997,19.962351,0.377500,0.011471,-0.052494,7.452000,14.968012

1.950292,4.001014,4.690107,19.941763,-0.060564,0.072224,0.116976,7.448000,14.968012

-5.182076,-3.289426,9.408296,19.929998,-0.196460,0.148166,0.039169,7.440000,14.968012

-1.625473,5.943375,13.094231,19.909410,-0.345946,0.198794,-0.046366,7.448000,14.968012

6.376288,2.698123,8.790380,19.918234,0.516593,0.250221,0.053291,7.452000,14.968012

-1.311725,0.691097,5.240961,19.912352,-0.332623,0.251020,0.038103,7.444000,14.968012

-3.148705,2.923255,10.900393,19.900587,-0.049639,0.245958,0.032507,7.432000,14.968012

0.520465,-2.113471,9.935200,19.912352,-0.333688,0.001878,0.220097,7.424000,14.968012

0.086966,5.641603,11.688354,19.885881,0.229347,0.285394,0.325349,7.436000,14.968012

-1.170419,-0.499228,11.300361,19.891764,-0.022993,0.007207,0.231022,7.432000,14.968012

-0.157326,5.730218,6.426496,19.874117,0.242936,0.248089,0.248875,7.444000,14.968012

-3.052904,2.164034,5.300837,19.888823,0.057478,0.254751,0.196115,7.456000,14.968012

-5.052745,-0.808185,9.322075,19.888823,-0.295051,0.211584,0.099123,7.452000,14.968012

-0.839906,1.419183,9.535232,19.885881,-0.014733,0.061832,0.015453,7.456000,14.968012

-0.061525,2.049073,10.533955,19.877058,-0.286791,0.438077,0.129766,7.460000,14.968012

0.676141,1.119806,10.866862,19.868235,0.221886,0.476714,-0.111649,7.464000,14.968012

-4.070787,12.654220,9.168794,19.859411,0.273313,0.379455,-0.486828,7.460000,14.968012

3.792062,-4.103732,6.069638,19.871176,-0.504224,-0.673338,-0.528663,7.460000,14.968012

0.762362,4.997342,10.268107,19.865294,0.327405,0.603550,-0.200381,7.448000,14.968012

-5.241952,8.872484,9.611873,19.865294,0.060676,0.284062,-0.592614,7.452000,14.968012

4.077069,-1.914684,8.876601,19.865294,-0.102399,-0.445779,-0.696534,7.464000,14.968012

-0.171696,1.452713,12.138618,19.841763,0.023904,-0.053013,-0.674418,7.456000,14.968012

-0.404013,2.338870,9.520862,19.853529,0.080128,0.086347,-0.795925,7.472000,14.968012

-3.800150,2.628668,10.914762,19.847647,-0.094938,-0.088453,-0.912902,7.472000,14.968012

2.989730,3.962693,9.092153,19.850588,0.305022,-0.111901,-0.782602,7.472000,14.968012

-0.734525,2.070628,12.313455,19.827057,-0.144767,-0.068468,-0.741833,7.464000,14.968012

-1.400341,1.905372,11.372211,19.838821,0.557096,0.031455,-0.713055,7.464000,14.968012

-1.841024,5.050033,5.276886,19.853529,0.058278,-0.203032,-0.767147,7.464000,14.968012

-1.857789,-2.515834,12.112272,19.856470,-0.090408,-0.427127,-0.310963,7.452000,14.968012

1.744320,5.416471,10.680051,19.847647,-0.109327,-0.165460,-0.160945,7.456000,14.968012

2.374210,1.294642,8.093430,19.868235,0.042557,-0.172388,-0.130301,7.456000,14.968012

-2.846932,5.936190,7.319838,19.865294,-0.038448,-0.227813,-0.157481,7.460000,14.968012

0.012721,1.675450,8.845466,19.871176,0.204299,-0.378630,-0.130568,7.456000,14.968012

0.738412,0.437225,5.954677,19.868235,0.111037,-0.164927,0.009591,7.464000,14.968012

-0.135770,5.790094,4.500900,19.879999,-0.133309,-0.030097,0.013322,7.464000,14.968012

0.439034,3.799832,14.140854,19.894705,-0.206319,0.031722,0.081536,7.472000,14.968012

0.094152,-0.654904,10.069321,19.874117,0.778526,0.032788,0.257934,7.480000,14.968012

-1.979935,4.822506,9.551997,19.882940,-0.342215,-0.098312,0.145754,7.480000,14.968012

2.513121,2.472991,3.849455,19.909410,0.168327,-0.059941,0.269126,7.480000,14.968012

-2.097291,-0.767470,10.950688,19.897646,-0.035783,-0.103108,0.297637,7.484000,14.968012

-3.507958,4.760235,8.871811,19.906469,0.030299,0.100203,0.153481,7.480000,14.968012

0.161212,1.960457,8.474237,19.900587,-0.274534,-0.198768,0.104718,7.480000,14.968012

0.063016,-1.006972,12.730187,19.912352,-0.220175,0.008273,0.266728,7.468000,14.968012

-0.411198,-0.171110,10.943503,19.906469,0.229347,0.131379,0.161741,7.484000,14.968012

0.233063,4.551868,3.418351,19.921175,0.197105,-0.057010,0.094859,7.480000,14.968012

3.399279,-1.835649,7.978468,19.894705,-0.583897,-0.243001,0.135628,7.472000,14.968012

0.649796,3.668106,14.550403,19.912352,0.377766,0.568377,0.469506,7.480000,14.968012

-1.975145,-7.485499,7.844347,19.932940,-0.142368,-0.097779,0.370914,7.468000,14.968012

-6.705309,10.285545,8.198811,19.927057,0.004719,0.860154,0.276587,7.472000,14.968012

-0.906967,-3.358881,7.576105,19.927057,-0.059232,-0.557427,-0.192654,7.468000,14.968012

-2.990633,4.966207,13.843872,19.938822,-0.013933,0.142304,-0.063419,7.460000,14.968012

0.867743,5.323065,4.460185,19.927057,0.435855,0.051440,-0.087934,7.476000,14.968012

-2.880463,-0.880036,9.710068,19.938822,-0.056301,0.053305,0.002663,7.468000,14.968012

-0.806376,-2.887062,10.287268,19.938822,-0.288656,-0.042088,-0.051429,7.476000,14.968012

-4.068392,7.059454,9.281360,19.935881,-0.071489,0.431948,-0.098592,7.480000,14.968012

1.361117,4.844061,6.469606,19.929998,0.193374,-0.012777,-0.218767,7.480000,14.968012

0.680931,3.093302,10.857283,19.935881,-0.389379,-0.264318,-0.074078,7.472000,14.968012

-2.837352,8.934754,10.830937,19.953527,0.341794,0.462059,-0.155349,7.496000,14.968012

-4.762948,-2.070361,6.639653,19.953527,0.313549,-0.323206,-0.475903,7.496000,14.968012

-4.487521,0.396510,11.901511,19.968235,-0.966270,-0.305353,-0.229958,7.488000,14.968012

3.720211,4.738680,8.998747,19.947645,0.807304,0.172148,-0.162277,7.496000,14.968012

-8.724311,-4.702487,8.239526,19.971176,-0.449067,-0.282970,-0.236354,7.492000,14.968012

1.777850,7.694135,12.653547,19.965292,0.013512,0.090876,-0.168672,7.496000,14.968012

6.424188,6.683436,7.475514,19.965292,0.211494,0.140971,-0.021052,7.492000,5.771098

-2.303263,3.409444,11.764995,19.974117,0.112103,-0.193972,-0.277655,7.484000,5.771098

0.209112,-0.745915,18.147722,19.962351,0.381497,-0.226214,-0.181995,7.492000,5.771098

-1.249454,3.320828,6.392965,19.977058,0.329270,-0.310150,-0.286981,7.500000,5.771098

0.336049,5.691898,5.561894,19.971176,-0.033385,-0.109237,-0.373848,7.500000,5.771098

1.955082,0.925809,7.798842,19.985882,-0.093606,-0.337062,-0.134831,7.492000,5.771098

0.798287,3.177127,12.052397,19.980000,-0.084546,-0.148673,0.006394,7.488000,5.771098

0.656981,2.959180,8.282637,19.994705,0.428394,-0.186244,-0.045300,7.496000,5.771098

-1.776359,0.456385,5.583449,19.980000,-0.112525,-0.134284,-0.203046,7.488000,5.771098

1.140775,3.054981,16.717896,19.988823,-0.027790,-0.090052,-0.126571,7.500000,5.771098

0.156422,5.610467,6.380991,19.971176,-0.028056,-0.019972,-0.003998,7.500000,5.771098

-0.430358,6.609190,10.608200,19.997646,0.008449,-0.005583,0.140424,7.500000,5.771098

1.155145,0.140242,9.329260,19.980000,0.128890,-0.163595,0.171334,7.496000,5.771098

-0.681835,5.564962,8.867022,19.971176,-0.049906,-0.089252,-0.091132,7.492000,5.771098

1.315612,-4.194743,13.764836,19.988823,-0.044577,-0.059142,0.033306,7.496000,5.771098

-0.926127,4.798556,6.685158,19.994705,0.093717,0.074889,0.024780,7.492000,5.771098

-0.269891,-1.107563,5.693620,19.988823,-0.304644,0.120187,-0.027181,7.504000,5.771098

0.264198,1.146151,10.981823,19.997646,-0.996114,0.161223,0.033306,7.492000,5.771098

2.311940,3.215447,13.704961,20.009411,0.334599,0.187069,-0.122041,7.488000,5.771098

1.310822,-0.283676,9.949570,20.006470,0.117699,0.068760,-0.402626,7.484000,5.771098

0.901273,1.649105,8.428732,19.997646,-0.288390,0.043180,-0.594213,7.488000,5.771098

0.491725,3.457345,9.980705,20.018234,0.288768,0.249422,-0.555309,7.492000,5.771098

-1.177604,2.755604,6.280400,20.003529,0.060143,0.058102,-0.515873,7.496000,5.771098

1.442548,-2.254777,7.327023,20.024117,0.339929,0.124451,-0.240084,7.492000,5.771098

-5.146151,4.204591,17.275934,20.024117,-0.753633,0.217180,-0.244347,7.492000,5.771098

4.069884,4.080050,6.151069,20.021175,0.871521,0.056769,-0.418614,7.492000,5.771098

-3.534303,-0.949491,7.808422,20.012352,-0.353407,-0.266450,-0.413551,7.484000,5.771098

-2.573900,5.919425,8.663445,20.015293,0.236008,0.403171,-0.221698,7.492000,5.771098

0.070201,-3.253500,11.365026,20.006470,-0.253217,-0.207295,-0.144690,7.484000,5.771098

-3.996542,4.822506,9.197534,20.015293,0.149408,0.199327,0.018651,7.496000,18.136985

-4.432436,6.487044,5.775051,20.018234,0.414005,0.031455,-0.071946,7.492000,18.136985

-4.861144,-6.110758,9.386741,20.021175,-0.753633,-0.349053,-0.029845,7.496000,18.136985

-4.640802,-1.684762,10.059741,20.032940,-0.072289,-0.202232,-0.099658,7.500000,18.136985

-6.298155,0.348609,12.751743,20.012352,-0.539131,0.067428,0.094060,7.496000,18.136985

-2.054181,3.969878,9.456196,20.012352,0.316480,0.247290,-0.118844,7.504000,18.136985

-3.603759,-2.044015,11.542258,20.029999,-0.037649,-0.221151,-0.078075,7.512000,18.136985

1.222206,10.936991,7.099496,20.038822,0.143013,-0.279773,-0.010926,7.504000,18.136985

-0.368087,-1.265634,7.885063,20.068233,0.346057,-0.649356,0.016786,7.508000,18.136985

-3.565438,-1.356645,12.914604,20.044704,-0.360601,-0.277108,0.131631,7.500000,18.136985

-3.273246,2.513707,13.566050,20.038822,0.335932,0.083682,0.085533,7.504000,18.136985

-2.475704,0.442015,4.517665,20.047646,0.286370,-0.278973,-0.051429,7.500000,18.136985

-1.292565,0.389324,9.113708,20.044704,-0.406433,-0.427659,-0.123373,7.504000,18.136985

5.336849,7.433077,9.717253,20.035881,0.828887,-0.053813,0.083135,7.500000,18.136985

-1.955985,-4.704882,10.418994,20.041763,-0.445070,-0.200900,0.025313,7.496000,18.136985

1.775455,7.581568,11.741045,20.053528,0.128091,-0.075663,-0.062087,7.504000,18.136985

-0.691415,-1.186598,8.019184,20.050587,0.339929,-0.168658,-0.142825,7.492000,18.136985

1.116825,-0.302836,11.060859,20.032940,-0.335021,-0.190508,-0.153750,7.500000,18.136985

-0.423173,8.551551,3.808739,20.029999,0.581610,0.123118,-0.216635,7.504000,18.136985

-0.799191,3.929163,7.810817,20.065292,-0.351808,-0.196903,-0.330148,7.504000,18.136985

-1.024323,0.798873,11.420112,20.059410,-0.014999,-0.129488,-0.176932,7.496000,18.136985

-1.709298,0.988079,7.655141,20.029999,-0.088543,-0.066869,-0.122841,7.500000,18.136985

-0.514183,8.393480,11.786550,20.044704,-0.318500,0.043446,-0.188923,7.496000,18.136985

0.336049,-3.397202,10.064531,20.050587,0.432658,-0.226747,0.092994,7.500000,18.136985

-1.213529,4.434513,12.560142,20.056469,-0.316901,-0.123359,0.066881,7.508000,18.136985

1.892811,7.665394,2.810016,20.050587,0.443050,-0.178784,0.083934,7.512000,18.136985

-0.389642,-5.504818,10.423784,20.053528,-0.707269,-0.172655,0.417545,7.500000,18.136985

1.911971,9.243711,12.342195,20.065292,0.380165,0.356540,0.472970,7.500000,18.136985

1.765875,-5.171911,7.315048,20.047646,-0.113058,-0.192640,0.329613,7.500000,18.136985

-4.501891,-4.498910,10.150752,20.029999,-0.754166,-0.048750,0.219031,7.504000,18.136985

-0.997977,9.895157,6.852809,20.032940,0.327405,0.509223,0.150017,7.504000,18.136985

4.072279,-6.379001,8.349697,20.044704,-0.166084,-0.317344,0.024247,7.504000,18.136985

-3.879186,5.881104,15.288069,20.047646,-0.201523,0.367198,0.182525,7.492000,18.136985

2.424506,-0.044174,4.405099,20.053528,0.529916,-0.057543,0.085800,7.500000,18.136985

-0.490233,4.956627,5.705595,20.032940,-0.533269,-0.024502,0.168936,7.480000,18.136985

-1.342860,-3.603173,18.363274,20.041763,0.045754,0.276068,0.544648,7.492000,18.136985

-0.478258,3.462135,11.709909,20.041763,0.172857,0.287526,0.639509,7.508000,18.136985

-4.865934,5.945770,6.481581,20.056469,0.039625,0.289391,0.392498,7.504000,18.136985

-3.919901,6.937308,1.885539,20.059410,0.400682,0.097805,0.417012,7.504000,18.136985

-0.698600,-2.348183,8.665839,20.068233,-0.522877,-0.442848,0.354394,7.496000,18.136985

1.140775,0.346214,13.144526,20.062351,0.301558,0.303780,0.432201,7.504000,18.136985

-0.621959,11.202838,7.691066,20.074116,0.862195,0.727988,0.370382,7.512000,18.136985

-6.118529,-0.801000,6.282794,20.077057,-0.321431,-0.388756,0.178795,7.516000,18.136985

-0.327372,5.706268,9.449011,20.059410,0.043622,0.227838,0.234486,7.512000,18.136985

-0.432753,-0.072914,9.365185,20.062351,-0.433612,0.016267,0.248875,7.516000,18.136985

-2.363138,3.744747,12.806828,20.082939,0.162731,0.298451,0.120706,7.516000,18.136985

-4.885094,2.343660,7.358159,20.079998,-0.144500,0.180941,-0.154816,7.520000,18.136985

1.303637,4.149505,11.530283,20.062351,-0.114923,0.041581,-0.271793,7.520000,18.136985

2.771783,2.717283,9.628637,20.056469,-0.179673,-0.043954,-0.294709,7.520000,18.136985

1.483263,5.600887,11.997312,20.065292,0.202168,0.058635,-0.389303,7.520000,18.136985

0.182767,-0.389057,4.359594,20.053528,0.515261,-0.117231,-0.516139,7.532000,18.136985

-2.202672,-9.396725,9.899275,20.077057,-0.782944,-0.520655,-0.522001,7.516000,18.136985

-0.598009,5.167388,9.231064,20.056469,0.026036,0.524944,-0.422611,7.512000,18.136985

0.055831,3.066956,8.661049,20.071175,0.150474,0.080218,-0.644840,7.524000,18.136985

2.199374,1.423973,10.986613,20.085880,-0.028855,-0.321874,-0.710390,7.516000,18.136985

-1.017138,-1.332695,8.158095,20.068233,-0.113324,-0.127623,-0.726112,7.516000,18.136985

-0.997977,11.133382,8.093430,20.071175,0.198171,-0.018640,-0.703729,7.516000,18.136985

0.637821,-5.543139,0.721559,20.065292,-0.207652,-0.592866,-0.627254,7.512000,9.050312

-3.007399,5.440421,15.007852,20.071175,-0.244157,0.152962,-0.327750,7.516000,9.050312

0.522860,-2.518229,5.130790,20.082939,0.377766,-0.216888,-0.301104,7.524000,9.050312

-3.107990,3.308853,11.803315,20.085880,-0.703538,-0.175852,-0.237952,7.520000,9.050312

-3.670819,4.259676,13.772021,20.077057,-0.111725,-0.092983,0.004795,7.520000,9.050312

-0.142955,6.702596,7.087521,20.068233,0.100112,-0.070067,0.021849,7.532000,9.050312

0.161212,0.408485,6.560617,20.088821,0.296762,-0.345323,0.065282,7.528000,9.050312

-2.631381,-2.194901,13.328942,20.088821,-0.503425,0.101002,0.260332,7.536000,9.050312

1.135985,11.542931,8.778405,20.071175,0.419068,0.151363,0.220097,7.544000,9.050312

1.442548,-3.945661,9.925620,20.091763,-0.038448,-0.422863,0.256069,7.540000,9.050312

-3.701954,2.528077,11.858400,20.085880,-0.130378,0.054105,0.322951,7.532000,9.050312

-0.075895,3.814203,9.542417,20.082939,0.280241,0.021863,0.351729,7.540000,9.050312

3.145406,0.140242,9.772339,20.068233,-0.133842,-0.263519,0.494819,7.544000,9.050312

-0.734525,2.185589,11.115945,20.094706,0.189377,0.017866,0.382905,7.540000,9.050312

-2.672096,1.076695,9.559182,20.094706,0.491812,-0.118030,0.467374,7.544000,9.050312

-3.045719,-2.458354,5.899591,20.082939,0.051883,-0.145742,0.558238,7.540000,9.050312

-2.899623,4.027359,10.586645,20.077057,-0.265208,0.130579,0.537454,7.536000,9.050312

1.729950,3.057376,8.754455,20.077057,0.295696,0.083149,0.678945,7.536000,9.050312

-1.436266,5.929005,7.221642,20.068233,-0.179940,0.125517,0.716516,7.540000,9.050312

2.247274,5.677528,5.288862,20.068233,0.468364,0.083416,0.602737,7.536000,9.050312

-5.519774,-6.563417,10.766272,20.088821,-0.472782,0.196396,0.561702,7.536000,9.050312

-1.333280,11.971639,8.388017,20.074116,-0.284926,0.434080,0.426072,7.536000,9.050312

3.760927,-0.504018,9.841794,20.091763,0.285037,-0.015442,0.209172,7.536000,9.050312

2.546652,5.591307,4.831413,20.074116,0.470229,0.227039,0.182792,7.548000,9.050312

-1.896110,-0.413007,6.323510,20.068233,0.071601,-0.049016,-0.013324,7.544000,9.050312

-1.012347,2.657408,6.139093,20.082939,-0.184203,-0.044220,-0.081805,7.540000,19.569317

-3.606153,2.204749,11.266830,20.074116,0.234942,0.183872,-0.294975,7.540000,19.569317

-2.382299,-4.836608,10.263317,20.079998,-0.228436,-0.204897,-0.385839,7.540000,19.569317

-0.104635,5.215289,7.532995,20.071175,-0.211116,0.373860,-0.283784,7.544000,19.569317

0.721647,-0.295651,9.465776,20.062351,-0.024592,-0.027433,-0.366920,7.540000,19.569317

-0.303422,3.804622,11.144685,20.077057,-0.050172,0.098071,-0.545184,7.540000,19.569317

0.458195,1.332962,4.414680,20.077057,0.423065,0.179608,-0.591282,7.544000,19.569317

-1.800309,-3.878600,8.483818,20.085880,-0.080816,-0.023169,-0.551845,7.544000,19.569317

-2.643356,3.328013,6.982141,20.068233,-0.199125,0.032788,-0.519070,7.544000,19.569317

-2.140402,-2.101496,14.576748,20.077057,-0.135440,0.001079,-0.501484,7.540000,19.569317

-2.308053,7.660604,9.535232,20.079998,0.512596,0.064230,-0.486029,7.544000,19.569317

0.022301,1.402418,9.295730,20.085880,-0.446136,-0.458036,-0.323487,7.544000,19.569317

1.823356,4.726705,6.060058,20.074116,0.864060,0.005342,-0.146822,7.540000,19.569317

-4.092343,0.640802,8.859837,20.071175,-0.503691,-0.222750,-0.115380,7.532000,19.569317

0.613871,3.088511,13.412768,20.077057,-0.243891,-0.230744,0.092461,7.532000,19.569317

0.185162,0.552186,12.114668,20.082939,0.234676,-0.068202,0.166005,7.536000,19.569317

-2.403854,2.966366,10.421389,20.077057,-0.226304,-0.103908,0.118841,7.548000,19.569317

2.357445,8.558736,3.715334,20.094706,-0.142102,-0.122826,0.279784,7.536000,19.569317

2.256854,1.862262,14.698894,20.079998,-0.183404,-0.128156,0.396761,7.544000,19.569317

0.352814,0.899464,13.731306,20.082939,0.177387,0.059967,0.179061,7.544000,19.569317

-0.198041,2.013148,8.900552,20.094706,0.269316,-0.009580,0.039968,7.556000,19.569317

-1.060248,7.136095,1.167033,20.082939,0.256526,0.129514,0.142290,7.552000,19.569317

0.992284,-4.898879,6.213339,20.077057,-0.439474,-0.199834,0.210771,7.544000,19.569317

-3.701954,6.966048,12.617621,20.085880,0.067338,0.491370,0.185190,7.552000,19.569317

0.359999,-3.701369,7.161767,20.091763,-0.135440,-0.242468,-0.031177,7.544000,19.569317

-0.037575,4.796161,13.029565,20.082939,0.187779,0.205189,-0.090865,7.556000,19.569317

3.157382,-3.622333,5.466093,20.077057,0.114235,-0.180382,-0.131634,7.556000,19.569317

2.103573,5.442816,10.088481,20.071175,-0.233499,0.211051,0.005861,7.548000,19.569317

-1.484166,3.066956,7.703041,20.094706,0.452909,0.287792,-0.005064,7.544000,19.569317

-2.894833,2.034703,10.423784,20.091763,0.005518,-0.072998,-0.147355,7.544000,19.569317

0.769547,2.281390,9.738809,20.091763,0.068936,0.044512,0.031175,7.548000,19.569317

0.513280,1.634735,7.252778,20.100588,-0.315835,-0.062606,0.097257,7.544000,19.569317

-1.235084,6.834322,9.973520,20.100588,0.266385,0.221177,0.116443,7.540000,19.569317

-1.467401,0.006121,11.226115,20.091763,-0.061897,-0.254725,0.166804,7.556000,19.569317

1.296451,4.616534,8.100615,20.103529,-0.341682,-0.205696,0.383971,7.548000,19.569317

-1.747618,1.771251,9.343630,20.100588,0.013779,0.124451,0.461245,7.552000,19.569317

-5.301827,0.715047,9.422666,20.097647,-0.043244,-0.019439,0.373846,7.548000,19.569317

-2.473310,0.906649,7.269543,20.103529,0.135552,-0.240869,0.198247,7.556000,19.569317

-0.868646,6.683436,10.553115,20.115294,0.447846,-0.112701,0.177729,7.560000,19.569317

5.698497,5.490716,9.635822,20.091763,0.589871,-0.177718,0.204642,7.564000,19.569317

-2.233808,-1.617702,7.906618,20.085880,-0.126647,-0.498006,0.219031,7.560000,19.569317

-2.446964,0.468360,7.049201,20.082939,0.393221,0.075155,0.189720,7.560000,19.569317

-0.023204,0.221673,9.829819,20.088821,0.011913,0.010938,0.034106,7.560000,19.569317

-0.612379,0.245623,5.940307,20.112352,0.253595,-0.115632,0.025846,7.556000,19.569317

-0.923732,-4.096547,7.705436,20.091763,-0.401103,-0.268848,-0.010660,7.544000,19.569317

2.187399,3.739957,16.698734,20.109411,-0.130378,0.408766,0.083135,7.556000,19.569317

2.280804,3.601046,8.754455,20.106470,0.032165,-0.277375,-0.201980,7.552000,19.569317

2.680773,8.108473,10.811777,20.106470,0.131289,0.119654,-0.104455,7.544000,19.569317

1.617384,1.572464,6.979745,20.103529,0.425996,-0.027966,-0.163343,7.552000,19.569317

-0.720155,-1.174623,10.651311,20.094706,-0.009137,-0.228346,-0.319490,7.548000,19.569317

0.702486,6.671461,6.579777,20.088821,0.205099,0.028791,-0.162277,7.556000,19.569317

-0.712970,-1.883549,3.090234,20.082939,-0.224972,0.079952,-0.181196,7.540000,19.569317

-0.444728,4.012989,13.362473,20.091763,-0.584963,0.202258,-0.147089,7.548000,19.569317

3.293898,4.580609,10.751902,20.085880,0.622379,0.041581,-0.156681,7.540000,19.569317

1.088085,-5.899997,7.815607,20.100588,-0.093872,-0.246731,-0.256338,7.544000,19.569317

-2.322423,5.936190,11.199770,20.094706,-0.206586,0.549192,-0.101790,7.556000,19.569317

0.192347,3.545960,6.905500,20.082939,0.038293,0.128181,-0.138295,7.548000,19.569317

0.273778,5.495506,14.574352,20.103529,-0.042445,0.098337,-0.273125,7.556000,19.569317

3.358563,5.193734,9.202324,20.097647,0.649558,-0.204630,-0.299772,7.560000,19.569317

1.931132,1.481453,4.596701,20.091763,0.346324,-0.072199,-0.180396,7.556000,19.569317

-2.324818,0.418065,7.863508,20.082939,-0.324362,-0.056477,-0.119909,7.552000,19.569317

-1.694928,-0.242961,9.283754,20.118235,0.103044,0.217979,-0.069548,7.556000,19.569317

-1.433871,-6.134708,10.366303,20.088821,-0.512751,0.024261,-0.147355,7.536000,19.569317

1.888021,11.504610,12.354170,20.100588,0.219488,0.441808,-0.202779,7.544000,19.569317

2.201769,1.376073,6.148674,20.100588,0.377233,-0.038358,-0.249144,7.540000,19.569317

-4.540211,-2.855927,7.865902,20.106470,-0.271869,-0.034894,-0.146556,7.540000,19.569317

-3.194210,8.946730,8.900552,20.094706,-0.123716,0.132711,-0.194785,7.536000,19.569317

2.431691,-7.461549,11.511123,20.103529,0.073200,-0.424728,-0.127104,7.532000,19.569317

-3.282826,10.630428,11.331496,20.100588,0.051350,0.580635,0.075408,7.544000,19.569317

4.354891,5.708663,4.510480,20.097647,0.467564,-0.094848,-0.047965,7.544000,19.569317

-0.947682,0.841983,4.529641,20.094706,0.148076,-0.272045,0.146020,7.548000,19.569317

-3.402577,-1.988930,12.181728,20.118235,-0.231633,-0.113234,0.317355,7.544000,19.569317

-2.181117,4.403378,8.694579,20.112352,-0.078684,0.150031,0.301101,7.544000,19.569317

-4.504286,2.659803,9.525652,20.103529,0.057745,0.042913,0.156146,7.552000,19.569317

-0.526159,-2.678696,10.047766,20.097647,-0.327293,-0.385292,0.208905,7.544000,19.569317

-4.133058,6.400824,9.350815,20.115294,0.428927,0.040249,0.035971,7.548000,19.569317

-2.794242,-2.501464,8.050320,20.127058,-0.255082,-0.075929,0.195849,7.556000,19.569317

-3.100805,3.452554,9.144843,20.112352,-0.190065,-0.029831,0.257934,7.548000,19.569317

-0.480653,4.688385,16.521503,20.129999,0.063074,0.052772,0.159077,7.556000,19.569317

2.874769,7.497743,12.723002,20.112352,0.424131,-0.094848,0.006660,7.556000,19.569317

1.210231,-1.375805,7.022856,20.109411,0.681800,-0.420199,-0.170804,7.560000,6.450483

-5.479059,1.373677,7.353368,20.127058,-0.089609,-0.001053,-0.125505,7.560000,6.450483

1.162330,-0.278886,6.941425,20.118235,0.177387,-0.371169,-0.093530,7.544000,6.450483

0.764757,0.885094,11.091994,20.132940,-0.300647,-0.216355,-0.008262,7.540000,6.450483

0.989889,3.373519,13.966018,20.129999,0.158468,0.031722,0.189187,7.544000,6.450483

1.512003,0.262388,8.850256,20.129999,0.089454,-0.163329,0.124170,7.548000,6.450483

0.668956,8.553946,7.966493,20.115294,0.028701,-0.031430,0.071677,7.552000,6.450483

2.058068,3.320828,3.779999,20.106470,0.144612,0.017333,0.369849,7.552000,6.450483

-3.656449,8.364739,10.141171,20.132940,0.158734,0.471918,0.244345,7.548000,6.450483

2.156263,6.099051,7.145002,20.135881,0.398284,0.135376,0.040767,7.560000,6.450483

1.116825,1.004844,12.191308,20.097647,-0.603348,-0.063405,0.027711,7.548000,6.450483

2.206559,5.756564,6.218129,20.144705,0.613852,0.160423,-0.004265,7.560000,6.450483

-2.676886,-1.636862,6.383386,20.129999,-0.309707,0.122852,-0.104455,7.556000,6.450483

0.091757,1.419183,11.365026,20.118235,-0.941756,0.316570,-0.130568,7.556000,6.450483

3.109481,1.680240,19.357206,20.124117,-0.258546,0.338420,-0.294975,7.552000,6.450483

5.188358,4.075260,10.771062,20.127058,0.650624,0.281930,-0.649370,7.564000,6.450483

-1.074618,0.446805,3.289020,20.115294,0.039093,0.173480,-0.840424,7.552000,6.450483

-1.397946,1.107830,9.698093,20.127058,0.032697,0.116990,-0.805251,7.560000,6.450483

-2.099686,-0.053754,4.441025,20.135881,0.102777,0.065296,-0.870801,7.552000,6.450483

1.061739,-3.243920,8.141330,20.115294,-0.368329,0.047443,-0.814044,7.544000,6.450483

1.785035,3.514825,15.228193,20.124117,-0.205254,0.401572,-0.630718,7.548000,6.450483

2.901114,2.463411,13.760046,20.132940,0.067338,0.311241,-0.486295,7.548000,6.450483

-1.857789,6.951678,5.782236,20.124117,0.643962,0.219844,-0.568099,7.556000,6.450483

-4.856354,-2.791261,7.968888,20.112352,-0.242292,-0.101776,-0.404225,7.556000,6.450483

-2.351163,4.068075,9.674143,20.150587,-0.335820,0.021063,-0.000534,7.552000,6.450483

-1.819469,3.407049,5.655300,20.135881,0.132088,0.343216,0.119374,7.552000,6.450483

-2.607430,-1.174623,11.805710,20.121176,-0.733382,-0.189176,0.120173,7.552000,6.450483

1.294056,7.579173,13.376842,20.112352,0.241871,0.196662,0.155613,7.564000,6.450483

-3.397787,-2.374528,6.534272,20.129999,0.255727,-0.347721,-0.046366,7.560000,18.781526

-3.309171,-0.142370,6.812094,20.150587,-0.338751,-0.362376,0.117775,7.556000,18.781526

-4.604877,-2.659535,10.562695,20.138823,-0.190865,0.183872,0.210238,7.560000,18.781526

-5.440739,6.285863,8.028764,20.147646,-0.307309,0.312040,0.110581,7.564000,18.781526

0.278568,2.472991,8.615544,20.138823,-0.065627,-0.484150,-0.170271,7.560000,18.781526

-1.833839,-1.682367,13.269067,20.153528,-0.106662,-0.194771,-0.107919,7.564000,18.781526

-2.688861,6.834322,7.382109,20.144705,-0.209517,-0.151338,0.005594,7.560000,18.781526

1.732345,-0.520783,5.928332,20.132940,-0.073088,-0.114033,-0.088467,7.560000,18.781526

-3.364257,0.286339,15.211428,20.156469,-0.238028,0.001612,-0.146289,7.560000,18.781526

1.614989,2.762789,9.255014,20.138823,-0.013401,-0.013577,-0.098060,7.560000,18.781526

1.600619,5.100328,4.278163,20.153528,0.219754,-0.223816,-0.237686,7.556000,18.781526

0.249828,3.304063,6.424101,20.153528,0.400149,-0.062606,-0.370384,7.548000,18.781526

-1.381181,-6.975360,10.986613,20.150587,-0.409097,-0.391154,-0.382908,7.552000,18.781526

-1.235084,6.166112,6.206154,20.168234,0.345524,0.344815,-0.399162,7.556000,18.781526

-2.353559,-1.009367,8.395202,20.162352,-0.538598,-0.325604,-0.493756,7.552000,18.781526

0.177977,8.498860,11.367421,20.144705,0.108906,0.035452,-0.351199,7.556000,18.781526

0.379159,-4.994679,5.878036,20.159410,-0.156757,-0.411672,-0.402093,7.548000,18.781526

0.585131,5.267980,13.393608,20.156469,-0.474914,0.179608,-0.388770,7.552000,18.781526

0.534835,4.317157,7.774892,20.147646,0.147010,-0.143078,-0.477769,7.556000,18.781526

1.193465,9.679605,8.890971,20.153528,0.367374,-0.231277,-0.406890,7.568000,18.781526

-1.797914,0.602481,3.281835,20.138823,-0.127447,-0.187044,-0.353331,7.556000,18.781526

1.926342,3.402259,10.993798,20.156469,0.062275,-0.234208,-0.273125,7.572000,18.781526

-0.823141,0.477940,14.236655,20.156469,-0.409897,-0.142545,-0.151618,7.568000,18.781526

0.134867,11.655497,12.689472,20.171175,0.373237,0.321100,-0.007995,7.568000,18.781526

1.552718,-5.892812,5.954677,20.165293,0.255460,-0.706379,0.045031,7.572000,18.781526

-3.886371,2.693333,11.714700,20.168234,-0.253750,-0.096980,0.326149,7.576000,18.781526

-3.584598,4.216566,10.646521,20.162352,-0.120252,0.072491,0.257135,7.576000,19.266408

-1.096173,-0.563893,9.848979,20.153528,0.266385,-0.098578,0.342403,7.572000,19.266408

1.557508,-1.703923,5.925937,20.153528,0.042024,-0.104973,0.308562,7.568000,19.266408

-2.696046,1.711375,6.234894,20.168234,0.063874,0.131112,0.366118,7.576000,19.266408

-3.112780,-1.687157,13.319363,20.159410,-0.351009,0.065563,0.310960,7.564000,19.266408

0.290543,6.261912,5.032594,20.153528,0.083059,-0.017041,0.464176,7.568000,19.266408

0.733622,-0.166320,12.667917,20.150587,-0.173544,-0.096180,0.504945,7.556000,19.266408

0.637821,3.960299,11.827266,20.165293,0.085723,0.244625,0.515604,7.568000,19.266408

-4.406090,6.767262,13.096625,20.159410,-0.015799,0.300316,0.461778,7.560000,19.266408

2.493961,4.470438,3.015988,20.162352,0.902964,-0.321874,0.300835,7.564000,19.266408

-5.124596,-3.895365,7.027646,20.141764,-0.487704,-0.102309,0.542250,7.572000,19.266408

-2.506840,8.585081,8.129354,20.144705,-0.071223,0.462325,0.557705,7.572000,19.266408

-0.772846,-1.600937,13.309782,20.153528,0.087589,-0.379963,0.161208,7.560000,19.266408

-3.206185,6.146952,8.572433,20.141764,0.120364,0.329360,0.260599,7.576000,19.266408

1.250946,0.355794,3.279440,20.138823,0.043089,-0.275509,0.054623,7.572000,19.266408

-7.268138,-5.806591,14.579143,20.127058,-0.558050,-0.104707,0.274189,7.572000,19.266408

-2.942733,6.249938,16.392172,20.147646,-0.032586,0.495633,0.235818,7.576000,19.266408

-0.051945,3.680081,8.246711,20.144705,0.477956,-0.517990,-0.038105,7.576000,19.266408

3.339403,8.520416,5.796606,20.150587,0.396952,0.012803,0.074075,7.580000,19.266408

-0.930917,-0.865666,11.003379,20.138823,0.168060,0.102334,-0.007462,7.580000,19.266408

0.520465,1.641920,9.166399,20.138823,0.148875,-0.334131,-0.251542,7.580000,19.266408

-1.869765,-0.973442,5.470883,20.141764,0.281573,0.033321,-0.269395,7.580000,19.266408

-2.336793,2.465806,5.286467,20.135881,-0.644117,0.106864,-0.320556,7.568000,19.266408

3.837567,3.636971,10.076506,20.144705,0.049485,-0.096713,-0.339475,7.572000,19.266408

2.335890,-1.454840,13.666640,20.150587,0.439852,-0.028499,-0.435135,7.576000,19.266408

0.441429,4.060890,7.164162,20.150587,0.559760,-0.093249,-0.501750,7.580000,19.266408

-0.109425,1.476663,2.347778,20.147646,-0.091208,-0.342924,-0.272060,7.568000,19.266408

-0.753685,3.294483,12.203283,20.147646,-0.300647,0.112993,-0.113781,7.568000,19.549948

0.364789,0.992869,12.210468,20.156469,0.354584,-0.019173,-0.307765,7.572000,19.549948

-1.175209,5.828414,3.952441,20.159410,0.169926,0.013336,-0.224096,7.580000,19.549948

-0.832721,4.798556,10.306428,20.147646,-0.258812,0.104466,-0.142292,7.580000,19.549948

-1.970355,-0.041779,9.872930,20.147646,-0.012335,0.045578,-0.314161,7.588000,19.549948

0.815052,6.985209,8.234735,20.153528,-0.113058,-0.005583,-0.268063,7.584000,19.549948

3.851937,-3.150514,6.922265,20.153528,0.244802,0.030390,-0.221965,7.584000,19.549948

-3.553463,1.349727,15.168318,20.159410,-0.683820,0.262745,-0.098060,7.580000,19.549948

-6.147269,5.347015,2.824386,20.144705,-0.348610,0.312307,-0.101524,7.580000,19.549948

0.326468,-3.445102,17.867504,20.127058,-0.518880,-0.129488,-0.098859,7.568000,19.549948

0.676141,6.836717,13.510964,20.144705,0.364177,0.251553,-0.134565,7.580000,19.549948

-1.268615,1.091065,11.582973,20.141764,0.161932,-0.340793,-0.254473,7.572000,19.549948

2.783759,0.281549,7.588080,20.138823,0.117166,-0.200900,0.068213,7.580000,19.549948

-2.178722,0.985684,9.652588,20.153528,-0.170347,0.321899,0.309362,7.572000,19.549948

-1.623077,-1.129118,8.970007,20.150587,0.079062,0.063964,0.283515,7.572000,19.549948

-2.135612,3.862103,13.328942,20.153528,-0.522344,0.086347,0.328547,7.564000,19.549948

0.177977,6.316998,4.546406,20.141764,0.278109,0.152962,0.287245,7.568000,19.549948

-3.232531,-1.897919,11.439272,20.141764,0.046287,-0.125225,0.179061,7.560000,19.549948

0.530045,-0.044174,9.449011,20.150587,0.298361,-0.098845,0.402890,7.576000,19.549948

-3.476823,6.293048,3.600373,20.156469,-0.273734,0.236631,0.518002,7.572000,19.549948

-3.464847,3.045401,5.585844,20.156469,0.095050,0.123651,0.504412,7.584000,19.549948

-4.494706,5.833204,8.359277,20.165293,-0.359002,0.096739,0.647769,7.584000,19.549948

2.977755,-1.749428,12.284714,20.162352,0.382296,-0.310416,0.355993,7.588000,19.549948

-5.804781,3.059771,12.258368,20.144705,-0.066160,0.274469,0.592345,7.592000,19.549948

-2.875673,3.809412,11.515913,20.153528,0.148076,0.117789,0.379441,7.592000,19.549948

-0.588429,3.263348,8.038344,20.165293,0.334866,-0.325871,-0.122308,7.592000,19.549948

-3.249296,-2.103891,8.203601,20.174116,0.048685,-0.222217,-0.194785,7.588000,19.783555

-0.020809,1.447923,10.725556,20.150587,-0.546059,-0.106839,-0.140161,7.588000,19.783555

2.719093,3.323223,9.525652,20.144705,0.239472,0.123118,-0.262467,7.592000,19.783555

-2.334398,0.283944,9.913645,20.156469,0.473959,0.190001,-0.453254,7.592000,19.783555

-4.420460,0.880304,6.577382,20.153528,-0.035517,-0.017840,-0.542252,7.600000,19.783555

0.177977,3.553145,5.614584,20.162352,-0.208451,-0.017574,-0.537723,7.596000,19.783555

3.001705,3.160362,12.109878,20.144705,0.403347,-0.034094,-0.598210,7.584000,19.783555

-0.063920,-7.516635,9.513677,20.168234,0.094783,-0.368238,-0.691205,7.592000,19.783555

-0.454308,2.889725,10.941108,20.153528,-0.578035,0.248089,-0.377312,7.588000,19.783555

0.800682,8.189903,5.437353,20.182940,0.753745,0.534803,-0.351199,7.584000,19.783555

-0.054340,-2.592475,8.996352,20.159410,-0.607612,-0.549966,-0.364788,7.584000,19.783555

-0.624354,6.458304,15.065331,20.159410,-0.017930,0.151896,-0.243282,7.580000,19.783555

2.889139,4.822506,8.376042,20.147646,0.192042,0.112726,-0.440997,7.588000,19.783555

0.910853,9.502374,10.280083,20.168234,0.025503,0.110595,-0.458317,7.592000,19.783555

1.904786,-0.621374,4.098537,20.162352,0.355384,-0.083124,-0.539854,7.596000,19.783555

-2.054181,1.428763,14.773139,20.171175,-0.847428,-0.034361,-0.427407,7.592000,19.783555

5.688917,6.075101,10.490845,20.156469,0.368440,0.343749,-0.314427,7.600000,19.783555

0.235458,3.567515,4.275768,20.147646,-0.264142,0.127382,-0.420746,7.588000,19.783555

1.085690,-2.190112,15.218613,20.162352,-0.163419,-0.059408,-0.362923,7.592000,19.783555

-0.894992,5.107513,9.429851,20.156469,0.157402,0.215581,-0.468442,7.588000,19.783555

0.561180,0.243228,7.779682,20.147646,0.358315,-0.159865,-0.598476,7.596000,19.783555

-0.099845,1.213211,6.036108,20.156469,-0.213247,-0.312015,-0.449257,7.588000,19.783555

0.577946,0.343819,8.531718,20.129999,0.064939,-0.129754,-0.242482,7.588000,19.783555

-0.245941,-0.863271,11.259645,20.156469,0.034563,-0.001320,-0.146289,7.596000,19.783555

-1.038693,2.631063,12.399675,20.150587,-0.010469,-0.055411,-0.049563,7.592000,19.783555

0.034276,3.229818,5.949887,20.153528,0.403080,-0.056744,0.192651,7.584000,20.363813

-6.671779,-0.669274,9.540022,20.147646,-0.198059,-0.152670,0.387169,7.588000,20.363813

-1.922455,1.665870,14.124089,20.162352,0.145678,-0.071133,0.532391,7.584000,20.363813

-3.474427,2.552027,9.175979,20.162352,0.060410,0.009073,0.639775,7.588000,20.363813

-5.024005,6.685831,5.291256,20.156469,0.092385,0.078353,0.667754,7.596000,20.363813

-0.617169,0.516261,10.038186,20.162352,-0.063495,-0.186511,0.637377,7.596000,20.363813

-3.725904,-0.827345,10.787827,20.168234,-0.315303,-0.163595,0.548645,7.596000,20.363813

-5.713771,0.317474,6.357040,20.171175,-0.474914,-0.159332,0.445257,7.592000,20.363813

-1.982330,0.626431,13.247512,20.147646,-0.093872,-0.055411,0.339738,7.600000,20.363813

-0.545319,4.415352,14.904865,20.177057,-0.087744,-0.068735,0.405821,7.596000,20.363813

0.465380,5.361385,8.215575,20.150587,0.411074,0.009605,0.282182,7.596000,20.363813

-0.885411,2.264625,7.446774,20.138823,0.104642,-0.236872,0.273922,7.600000,20.363813

-1.194369,2.904095,7.513834,20.159410,-0.135707,-0.166793,0.218764,7.596000,20.363813

0.577946,0.264784,6.436076,20.141764,0.459570,-0.071666,0.177196,7.604000,20.363813

-4.973710,-4.894088,10.804592,20.150587,-0.655842,0.018665,0.158810,7.604000,20.363813

1.655704,6.925333,11.072834,20.141764,0.445181,0.125517,0.059153,7.604000,20.363813

0.747992,1.668265,14.025893,20.138823,-0.282261,-0.055145,-0.448191,7.588000,20.363813

2.072438,1.565279,7.470724,20.156469,0.305289,-0.051947,-0.530528,7.596000,20.363813

-1.948800,0.255203,4.467370,20.144705,-0.443471,0.054904,-0.554510,7.588000,20.363813

0.012721,-0.147160,14.124089,20.153528,-0.136773,0.013602,-0.573695,7.596000,20.363813

-1.170419,6.261912,9.293335,20.162352,0.138217,0.088745,-0.669355,7.596000,20.363813

-0.509393,3.548355,6.103168,20.165293,0.419867,-0.149473,-0.685076,7.596000,20.363813

2.422111,4.714730,5.389452,20.156469,-0.098402,-0.274444,-0.494289,7.600000,20.363813

-1.393156,-3.284636,12.152988,20.159410,-0.161820,-0.192906,-0.307499,7.604000,20.363813

-4.516261,6.187667,9.396320,20.165293,-0.084546,0.173213,-0.101790,7.600000,20.363813

2.479591,3.361544,5.705595,20.177057,0.125959,-0.200101,0.042366,7.600000,20.353664

1.282081,1.129385,9.061018,20.179998,0.067604,-0.283237,0.297904,7.604000,20.353664

-0.420778,-3.418757,10.035790,20.165293,-0.108794,-0.177185,0.520400,7.608000,20.353664

-4.494706,0.097132,8.220366,20.174116,0.032697,0.263544,0.568363,7.604000,20.353664

-3.335516,3.430999,6.256449,20.171175,-0.161554,-0.061807,0.484427,7.600000,20.353664

0.467775,1.105435,10.210628,20.177057,-0.177009,-0.200900,0.576357,7.608000,20.353664

0.122892,7.138490,12.770903,20.171175,-0.008338,0.088745,0.493754,7.592000,20.353664

4.005219,-6.596947,13.954042,20.171175,0.546704,-0.380496,0.499083,7.608000,20.353664

-5.680241,3.780672,11.820080,20.179998,-0.046175,0.498831,0.566231,7.612000,20.353664

0.125287,3.088511,1.866379,20.177057,0.631705,-0.234208,0.368516,7.604000,20.353664

-1.848209,-3.854650,7.736571,20.159410,-0.523410,-0.074597,0.689604,7.600000,20.353664

-0.365692,3.828573,13.132551,20.171175,0.015111,0.519348,0.700795,7.600000,20.353664

-0.988397,4.106395,13.937278,20.159410,-0.239894,0.241961,0.677346,7.600000,20.353664

3.708236,7.052269,3.662643,20.165293,0.968247,0.179608,0.484427,7.596000,20.353664

-8.070470,-5.916762,4.402704,20.144705,-0.617737,0.097538,0.443392,7.596000,20.353664

-2.219437,4.556659,19.072199,20.177057,-0.780013,0.636592,0.493221,7.596000,20.353664

5.679337,6.398429,10.277688,20.174116,0.993295,-0.263252,-0.226494,7.596000,20.353664

-5.074301,-3.897761,8.510163,20.168234,-0.221241,0.190001,-0.059689,7.600000,20.353664

-0.533344,8.879669,4.879313,20.179998,-0.130910,0.492169,0.268593,7.600000,20.353664

0.441429,2.537657,6.857599,20.174116,-0.064028,0.061299,0.014921,7.596000,20.353664

-3.855236,2.046678,9.489726,20.174116,-0.021661,0.062631,-0.301903,7.600000,20.353664

-3.019374,-4.661771,14.674944,20.150587,-0.614007,-0.017041,-0.183594,7.604000,20.353664

1.411412,5.210499,10.232183,20.165293,-0.359269,0.633927,0.032507,7.596000,20.353664

3.138221,4.791370,7.125842,20.171175,0.334067,0.148432,-0.161211,7.604000,20.353664

-1.220714,-1.165043,11.029724,20.188822,-0.154359,-0.000254,-0.337609,7.600000,20.353664

-1.666188,-0.781840,14.411491,20.168234,-0.027523,-0.037292,-0.505747,7.596000,20.353664

1.624569,2.834639,7.573710,20.168234,0.490480,-0.231543,-0.660828,7.600000,20.530310

-1.053063,1.268297,6.900710,20.182940,-0.589226,0.225440,-0.621658,7.600000,20.530310

2.458036,4.259676,13.257092,20.191763,0.000189,0.240362,-0.879327,7.600000,20.530310

0.288148,3.907608,3.051913,20.182940,0.593334,0.131379,-1.053860,7.596000,20.530310

-0.974027,-0.029804,12.665523,20.200586,-0.748571,-0.602192,-0.883591,7.596000,20.530310

-0.813561,1.790411,10.361513,20.191763,0.138483,0.186537,-0.561171,7.600000,20.530310

2.010167,3.081326,12.454761,20.182940,0.090520,-0.136150,-0.499618,7.600000,20.530310

2.194584,3.979459,9.918435,20.174116,0.055347,-0.251528,-0.110317,7.600000,20.530310

-0.073500,7.406732,10.373488,20.203527,0.271714,-0.110569,0.154547,7.608000,20.530310

-0.327372,3.692056,11.724279,20.185881,-0.240959,-0.415402,0.278452,7.604000,20.530310

0.209112,9.073666,10.699211,20.179998,0.512330,0.159890,0.405022,7.604000,20.530310

0.127682,1.076695,12.414045,20.162352,0.210694,-0.014643,0.213435,7.600000,20.530310

2.292779,6.520575,12.701447,20.194704,0.170725,-0.159865,0.145221,7.608000,20.530310

0.803077,0.995264,7.647956,20.185881,0.161132,-0.117764,0.153748,7.608000,20.530310

0.024696,2.882540,8.119775,20.185881,0.133420,-0.097779,0.176130,7.608000,20.530310

-4.259994,-4.570761,7.827582,20.203527,0.154737,0.024261,0.130032,7.596000,20.530310

-3.663634,-0.286071,10.775852,20.185881,-0.639854,0.078353,0.142290,7.600000,20.530310

1.751505,3.692056,5.983417,20.212351,0.195240,0.226239,0.054890,7.596000,20.530310

2.254459,0.398905,7.180927,20.185881,-0.047508,0.110062,0.025579,7.604000,20.530310

-1.484166,4.551868,12.006892,20.185881,-0.377388,0.178010,-0.031444,7.604000,20.530310

8.263563,0.921019,10.462104,20.203527,0.491013,-0.057277,-0.073279,7.596000,20.530310

-7.490875,2.039493,10.390254,20.185881,0.497674,0.339220,-0.333879,7.596000,20.530310

-2.796637,-0.630954,6.685158,20.188822,-0.023526,0.259814,-0.235554,7.604000,20.530310

-1.757199,-0.384267,7.595265,20.206469,-0.376589,0.133244,-0.172136,7.596000,20.530310

-0.205226,8.853324,10.708791,20.197645,0.177387,0.529474,-0.211040,7.600000,20.530310

2.019747,-3.421152,5.849296,20.194704,0.080927,-0.079393,-0.257404,7.604000,20.530310

-5.359308,-1.380595,8.059899,20.197645,-0.820515,0.049575,-0.246479,7.592000,20.530310

-0.162116,3.371124,10.878838,20.185881,0.183249,0.394111,-0.340007,7.604000,20.530310

-0.626749,1.208421,8.694579,20.203527,-0.603348,0.127382,-0.332280,7.600000,20.530310

1.598224,10.084364,9.125683,20.200586,0.035096,0.224641,-0.326151,7.604000,20.530310

-0.844696,-3.730109,6.757009,20.197645,0.203500,-0.200900,-0.559839,7.592000,20.530310

-6.173615,-4.484540,15.161133,20.209410,-0.115722,0.398108,-0.508412,7.604000,20.530310

-1.110543,5.033267,10.814172,20.197645,-0.171679,0.204390,-0.532660,7.608000,20.530310

2.951410,4.592584,4.627836,20.194704,0.162731,-0.051681,-0.635781,7.604000,20.530310

-0.358507,2.724468,11.693144,20.194704,-0.412828,-0.020505,-0.639245,7.604000,20.530310

1.380277,8.271334,9.985496,20.209410,1.154505,0.382653,-0.806317,7.608000,20.530310

-4.283944,-10.891217,8.050320,20.215292,0.136085,-0.473491,-0.841756,7.604000,20.530310

-3.189420,5.972115,10.100456,20.200586,-0.471716,0.279265,-0.496421,7.604000,20.530310

7.147484,4.745865,6.206154,20.206469,0.327671,0.017333,-0.398896,7.600000,20.530310

-3.472033,0.367769,10.478869,20.200586,0.053215,-0.034361,-0.316825,7.596000,20.530310

-2.279313,6.364898,5.787025,20.203527,0.443050,-0.260588,-0.322421,7.596000,20.530310

-2.370324,-5.404228,9.034673,20.218235,0.000189,-0.392220,-0.161478,7.600000,20.530310

-3.376232,4.384217,11.776970,20.215292,0.243469,0.354941,0.110314,7.604000,20.530310

1.102455,-1.035712,6.493556,20.224117,-0.290522,-0.294428,-0.038638,7.596000,20.530310

-5.974828,-2.453564,5.226591,20.227058,0.245068,-0.148673,-0.313361,7.608000,20.530310

-0.851881,-1.976955,15.161133,20.221176,-0.551388,0.014935,-0.356528,7.604000,20.530310

-1.635053,6.384058,7.657536,20.230000,0.322342,0.429284,-0.854547,7.608000,20.530310

0.755177,3.519615,4.297324,20.227058,0.100645,-0.023169,-0.854280,7.604000,20.530310

2.458036,3.548355,7.034831,20.227058,-0.563912,-0.270180,-0.738902,7.596000,20.530310

-0.178881,2.971155,19.613474,20.232941,-0.074953,0.205189,-0.921695,7.592000,20.530310

-0.341742,-4.714462,7.063571,20.244705,0.406544,0.065030,-1.222531,7.604000,20.530310

-3.991752,-1.632072,10.577065,20.247646,-0.586561,-0.114300,-1.032810,7.592000,20.530310

-1.570387,7.816280,10.790222,20.238823,0.622112,0.349345,-1.093830,7.604000,10.022967

-0.226781,-5.952687,2.060375,20.235882,-0.349943,-0.293629,-1.108219,7.596000,10.022967

-3.766620,5.567357,11.228511,20.244705,0.047619,0.106864,-0.876130,7.600000,10.022967

2.984940,-4.827028,12.876284,20.232941,0.021240,0.037584,-0.757821,7.600000,10.022967

-2.971473,-1.921869,4.661366,20.230000,-0.046975,-0.245666,-0.756222,7.612000,10.022967

-3.460057,6.997184,6.740243,20.241764,-0.119719,0.181740,-0.564369,7.604000,10.022967

-0.181276,1.522169,17.618423,20.241764,0.406011,0.014402,-0.755156,7.608000,10.022967

-1.903295,4.104000,4.057822,20.250587,0.827822,-0.303754,-0.735438,7.612000,10.022967

-3.191815,-2.324233,7.976073,20.259411,-0.440540,-0.645892,-0.587018,7.612000,10.022967

0.934803,5.105118,13.142131,20.247646,-0.144500,-0.057277,-0.437799,7.612000,10.022967

2.374210,0.676727,11.820080,20.250587,0.817696,-0.201433,-0.324819,7.612000,10.022967

-7.071747,6.683436,6.000182,20.265293,0.578413,-0.012244,-0.185193,7.616000,10.022967

-0.497418,-0.015434,-0.430445,20.268234,-0.014733,-0.710110,-0.187591,7.616000,10.022967

-5.062325,0.863538,12.495476,20.262352,-0.624133,-0.226214,0.160942,7.612000,10.022967

-1.613497,2.880145,10.615385,20.253529,-0.087211,0.399440,0.281650,7.608000,10.022967

2.551442,-1.394965,11.815290,20.253529,-0.152227,-0.598995,0.017585,7.612000,10.022967

0.405504,5.699083,19.963146,20.256470,0.258391,-0.564888,0.103919,7.612000,10.022967

0.077386,8.364739,10.462104,20.256470,0.586140,-0.380762,0.283781,7.608000,10.022967

-1.431476,2.120924,-0.686712,20.253529,0.372437,-0.392220,0.496418,7.604000,10.022967

-3.764225,-9.624252,17.093914,20.274117,-0.936693,-0.014643,0.670152,7.608000,10.022967

-0.679440,8.726388,16.279606,20.262352,0.454774,0.212916,0.436731,7.612000,10.022967

2.675983,0.461175,7.549760,20.250587,0.393754,-0.721301,-0.025315,7.604000,10.022967

-3.596574,-2.479909,8.035949,20.256470,-0.316635,-0.124958,-0.100724,7.592000,10.022967

-0.657885,5.955350,8.481422,20.235882,-0.044044,0.243027,-0.066617,7.600000,10.022967

1.224601,2.087393,11.968572,20.244705,0.391089,0.165220,-0.355995,7.596000,10.022967

-0.466283,0.889884,10.890813,20.253529,0.060410,0.079419,-0.587285,7.604000,10.022967

0.254618,4.056099,5.813371,20.271175,0.089720,0.179608,-0.838559,7.604000,10.022967

-0.940497,3.684871,5.731940,20.277058,0.001255,0.153495,-1.026948,7.604000,10.022967

-0.044760,2.381981,10.574670,20.265293,-0.242292,-0.002385,-0.984580,7.608000,10.022967

1.397042,3.792647,10.962664,20.262352,0.221886,0.127115,-1.130069,7.608000,10.022967

1.162330,5.169784,10.337564,20.262352,-0.105597,0.051707,-1.016289,7.612000,10.022967

3.260367,4.060890,10.945898,20.250587,0.113169,0.175612,-0.932353,7.616000,10.022967

-0.681835,8.743153,6.093588,20.256470,0.537910,0.025860,-1.070647,7.620000,10.022967

3.329823,-2.020065,13.190031,20.250587,-0.341682,-0.733025,-0.874265,7.624000,10.022967

-3.879186,8.692858,14.957556,20.253529,0.206697,0.094341,-0.611533,7.624000,10.022967

0.958754,0.422855,7.899433,20.241764,0.486217,-0.450842,-0.659762,7.616000,10.022967

-1.967960,0.822823,4.817043,20.238823,0.445181,-0.281638,-0.565701,7.620000,10.022967

-2.461334,-5.291662,13.180451,20.241764,-0.755499,-0.309883,-0.354663,7.608000,10.022967

1.420992,8.132422,10.538745,20.262352,0.513662,0.290457,-0.139361,7.608000,10.022967

-2.549950,-3.188835,7.839557,20.244705,0.038560,-0.711442,-0.134565,7.608000,10.022967

-3.503168,4.829691,8.493398,20.250587,-0.146099,-0.352251,0.248342,7.604000,10.022967

-1.280590,0.374954,12.845149,20.241764,0.480354,-0.231277,0.285114,7.600000,10.022967

-5.208422,-4.451010,9.338840,20.227058,0.561359,-0.077528,0.415680,7.604000,10.022967

-6.171219,3.402259,3.521337,20.235882,-0.373924,0.101801,0.665622,7.612000,10.022967

-3.503168,0.449200,9.120893,20.206469,-0.544993,-0.302156,0.540385,7.612000,10.022967

2.280804,7.231895,13.067885,20.224117,0.279708,-0.082324,0.572893,7.612000,10.022967

0.489330,-1.042897,6.534272,20.191763,0.326872,-0.277641,0.550777,7.612000,10.022967

-5.586835,6.388849,12.361355,20.203527,-0.061364,-0.056744,0.569962,7.612000,10.022967

1.370697,5.955350,4.479345,20.177057,0.738024,-0.333598,0.513472,7.616000,10.022967

-6.336476,-7.907023,9.563972,20.182940,-0.555385,-0.268848,0.707723,7.620000,10.022967

-4.561767,6.190062,15.055752,20.174116,-0.140237,0.182540,0.611264,7.620000,10.022967

1.943107,6.319393,6.668393,20.185881,0.619181,-0.400747,0.308029,7.620000,10.146025

0.714462,0.750972,12.402070,20.171175,-0.059499,-0.175586,0.297371,7.620000,10.146025

-3.261271,-0.496833,12.675102,20.159410,0.140881,-0.100444,-0.000801,7.620000,10.146025

-0.329767,-0.197455,6.519902,20.147646,-0.230301,-0.124692,-0.061821,7.620000,10.146025

1.420992,6.697806,11.010564,20.156469,-0.265741,0.127382,-0.149487,7.620000,10.146025

3.547770,-1.909894,8.811935,20.144705,0.588805,-0.155601,-0.292311,7.612000,10.146025

-3.402577,-0.650114,9.094548,20.165293,-0.242025,0.056769,-0.367187,7.612000,10.146025

-0.631539,5.802069,6.239684,20.138823,-0.158090,-0.086321,-0.344004,7.616000,10.146025

3.339403,-0.956676,12.603251,20.156469,0.143812,-0.266183,-0.208908,7.608000,10.146025

-0.715365,6.563685,7.901828,20.159410,0.346057,-0.013843,-0.197983,7.612000,10.146025

-1.038693,-1.629677,9.084968,20.150587,-0.313437,-0.334398,-0.200115,7.604000,10.146025

0.860558,4.992552,8.869416,20.153528,0.211760,0.070625,-0.010393,7.604000,10.146025

-1.673373,0.554581,7.379714,20.174116,-0.442139,-0.078327,0.041567,7.604000,10.146025

-4.636012,-0.638139,17.067568,20.165293,-0.210849,0.014668,-0.014923,7.604000,10.146025

-0.847091,3.579490,10.042975,20.165293,0.317279,-0.182514,-0.172669,7.612000,10.146025

0.031881,4.362662,7.832372,20.138823,0.327405,-0.127623,-0.309897,7.620000,10.146025

-2.147587,2.044283,0.750300,20.162352,-0.244424,-0.057543,-0.321355,7.612000,10.146025

0.257013,-5.476078,12.126643,20.147646,0.086523,-0.247264,-0.136963,7.608000,10.146025

-1.563202,-0.362712,14.502502,20.162352,-0.359269,0.270206,-0.229426,7.608000,10.146025

-2.770292,5.926610,5.542734,20.141764,0.196039,0.275535,-0.261667,7.616000,10.146025

-1.457821,-2.439194,8.953242,20.135881,-0.186068,-0.187577,-0.063153,7.608000,10.146025

-1.750014,2.808294,8.701765,20.135881,-0.216445,0.008273,0.090329,7.612000,10.146025

1.749110,6.635536,7.271938,20.135881,0.735892,-0.046352,0.133496,7.608000,10.146025

2.299965,-2.453564,3.205194,20.127058,0.205632,-0.235274,0.333876,7.608000,10.146025

-5.191657,0.334239,11.429692,20.129999,-0.490368,-0.085255,0.317622,7.612000,10.146025

1.969452,3.567515,6.740243,20.127058,0.519258,0.139639,0.434066,7.612000,10.146025

-1.235084,-4.223483,8.239526,20.135881,-0.289722,-0.285635,0.426872,7.608000,19.877605

-1.958380,4.276442,8.565248,20.124117,0.028701,0.149498,0.369582,7.612000,19.877605

-2.327213,2.353240,9.482541,20.106470,-0.187933,0.301115,0.330146,7.612000,19.877605

-2.106871,3.912398,9.381950,20.103529,0.014312,0.168950,0.117509,7.604000,19.877605

-0.648305,1.373677,12.893049,20.115294,-0.132776,0.099137,0.032241,7.612000,19.877605

2.278409,5.864339,10.926738,20.091763,0.442783,0.405036,0.007460,7.624000,19.877605

-4.698283,-0.065729,8.095824,20.103529,-0.182604,-0.090851,-0.179331,7.620000,19.877605

-3.931876,3.198682,9.990285,20.091763,-0.464788,-0.181715,-0.166540,7.616000,19.877605

4.936881,2.793924,6.888734,20.091763,0.548036,-0.096447,-0.033576,7.620000,19.877605

-6.413116,-4.565971,5.851691,20.088821,-0.253483,-0.096713,-0.000001,7.612000,19.877605

-7.373519,6.249938,12.188913,20.082939,0.024437,0.398108,0.060752,7.620000,19.877605

3.844752,-5.888021,9.446616,20.088821,-0.001943,-0.611519,-0.082605,7.628000,19.877605

-2.925968,6.379269,13.326548,20.079998,-0.306776,0.233967,0.155879,7.620000,19.877605

8.783282,7.720479,3.130949,20.074116,0.856333,0.079685,0.171334,7.624000,19.877605

-7.948324,-5.389857,10.881232,20.091763,-0.562846,-0.263519,0.201444,7.624000,19.877605

1.911971,6.467884,13.460669,20.077057,0.165929,0.148166,0.216366,7.620000,19.877605

2.711908,3.210657,8.560458,20.079998,0.000455,-0.047684,0.039968,7.624000,19.877605

0.177977,1.522169,8.668234,20.065292,0.445181,-0.071932,0.002397,7.624000,19.877605

-1.026718,0.827613,6.004972,20.071175,-0.072822,-0.248863,-0.081006,7.620000,19.877605

1.753900,3.186707,8.555669,20.065292,-0.140237,0.022396,-0.039971,7.624000,19.877605

1.147960,-0.396242,9.702883,20.053528,0.039625,0.003210,0.009325,7.612000,19.877605

0.532440,7.387572,9.860954,20.032940,-0.171413,0.186537,-0.138562,7.616000,19.877605

-0.679440,0.645592,11.142290,20.035881,-0.161820,0.073024,-0.308298,7.620000,19.877605

2.493961,10.637613,7.880273,20.044704,0.275711,0.043446,-0.337609,7.620000,19.877605

2.371815,1.586834,11.355447,20.021175,0.226949,-0.000254,-0.534259,7.628000,19.877605

-2.834957,-4.074992,7.252778,20.035881,0.094250,0.156693,-0.441796,7.628000,20.510539

-1.115333,3.816597,7.643166,20.015293,-0.255615,0.310974,-0.437799,7.624000,20.510539

-0.521369,4.068075,5.272096,20.018234,0.123828,0.153229,-0.402893,7.628000,20.510539

-1.239874,-7.109481,14.507292,20.024117,-0.443471,0.101535,-0.261934,7.624000,20.510539

-1.266220,10.956151,12.691868,20.029999,-0.167416,0.482310,-0.126038,7.624000,20.510539

1.715580,-1.220129,3.679408,20.032940,0.564024,-0.278973,-0.274458,7.632000,20.510539

-7.253768,-0.444142,7.056386,20.021175,-0.422420,0.001612,-0.050629,7.628000,20.510539

0.941988,-0.793815,7.264753,20.041763,0.088921,0.118322,0.230755,7.624000,20.510539

-3.419342,-1.905104,13.590000,20.029999,-0.558316,-0.043954,0.253404,7.624000,20.510539

2.388580,7.617494,8.651469,20.032940,0.439319,0.083682,0.321352,7.624000,20.510539

-0.906967,-1.986535,11.664404,20.038822,0.101711,-0.294162,0.300302,7.628000,20.510539

-2.011071,3.737562,10.735136,20.024117,0.097448,0.114858,0.418345,7.624000,20.510539

-1.218319,0.961734,8.438313,20.027058,0.100645,-0.072199,0.432734,7.620000,20.510539

-2.446964,5.682318,9.386741,20.027058,-0.187401,0.124451,0.439662,7.620000,20.510539

-1.541647,0.918624,7.243197,20.024117,0.104642,-0.089785,0.278185,7.624000,20.510539

-0.535739,0.470755,10.991404,20.018234,-0.032053,-0.176652,0.256336,7.620000,20.510539

-2.439779,-0.513598,10.397439,20.018234,-0.362733,0.069559,0.218498,7.624000,20.510539

-3.797755,8.192298,6.634862,20.003529,0.120630,0.488172,0.012256,7.628000,20.510539

-3.872001,-3.782799,10.265713,20.032940,-0.445603,-0.615515,-0.056758,7.620000,20.510539

-1.845814,1.893397,13.913327,20.006470,-0.356871,0.188668,-0.011459,7.628000,20.510539

2.022142,6.891803,7.564130,20.024117,-0.045110,0.233967,-0.187324,7.624000,20.510539

1.399437,4.151900,8.301796,20.027058,0.366575,-0.277375,-0.362657,7.620000,20.510539

4.850660,4.618929,9.738809,20.015293,0.610388,-0.159598,-0.342939,7.624000,20.510539

-3.096014,-2.499069,5.339157,20.018234,0.432924,-0.188643,-0.448191,7.628000,20.510539

-4.504286,-3.013998,10.119617,20.012352,-0.522610,-0.020771,-0.283251,7.628000,20.510539

3.159777,3.955508,10.440549,20.029999,-0.205786,0.113792,-0.292044,7.632000,20.510539

1.250946,5.045243,9.520862,20.015293,0.228814,0.079419,-0.391435,7.628000,20.510539

2.527491,3.313643,6.668393,20.012352,0.116900,-0.056477,-0.388237,7.624000,20.510539

-1.996701,-0.633349,13.110996,20.029999,-0.305976,-0.080725,-0.394632,7.628000,20.510539

-1.764384,4.499178,15.920354,20.041763,0.111837,0.048775,-0.284050,7.624000,20.510539

3.119061,5.495506,6.888734,20.015293,0.595733,-0.285102,-0.318424,7.632000,20.510539

1.674865,-1.933844,4.110512,20.029999,0.016976,-0.413004,-0.225695,7.636000,20.510539

-2.085316,-2.204482,9.092153,20.027058,-0.623600,-0.446312,-0.074877,7.636000,20.510539

-1.781149,7.698924,13.604370,20.021175,-0.037382,0.141238,0.028777,7.628000,20.510539

3.780087,0.803663,8.112590,20.027058,0.693791,-0.519589,-0.293377,7.636000,20.510539

-2.734366,-3.540903,7.034831,20.024117,-0.551388,-0.322140,0.169735,7.636000,20.510539

-0.547714,9.452079,12.253579,20.015293,0.234942,0.308310,0.311493,7.644000,20.510539

0.704881,-1.579381,7.039621,20.029999,0.232811,-0.260055,0.342669,7.640000,20.510539

-2.188302,1.524564,9.736413,20.027058,-0.303045,-0.147075,0.521732,7.640000,20.510539

-1.400341,5.505086,12.397280,20.015293,0.123561,-0.060741,0.462578,7.644000,20.510539

-0.380062,2.973551,6.761798,20.027058,0.482486,-0.148140,0.407153,7.640000,20.510539

-1.841024,-5.959872,7.554550,20.029999,-0.238028,-0.373568,0.440994,7.644000,20.510539

-7.145992,-7.693866,12.093113,20.018234,-0.856488,0.406102,0.706391,7.640000,20.510539

-3.412157,1.428763,4.618256,20.015293,-0.169814,0.215048,0.320020,7.632000,20.510539

-2.423014,-1.955400,12.902629,20.018234,-0.150895,0.304313,0.335741,7.636000,20.510539

2.295175,6.918148,6.840834,19.977058,0.144878,0.314971,0.200112,7.640000,20.510539

-1.144074,-1.220129,9.722043,20.009411,-0.426950,0.119122,0.038902,7.640000,20.510539

0.405504,10.390926,14.782720,19.991764,0.075864,0.192132,0.029842,7.636000,20.510539

2.992125,2.801109,6.548642,19.985882,0.370572,-0.289099,-0.070347,7.632000,20.510539

-5.586835,-3.380436,11.980547,19.971176,-0.231100,0.045311,-0.080473,7.632000,10.574322

-3.924691,4.750655,16.401752,19.968235,-0.160754,0.394644,0.073009,7.640000,10.574322

-0.880621,2.425091,7.247987,19.968235,0.610122,-0.513460,-0.084470,7.636000,10.574322

0.300123,-2.384108,2.642365,19.980000,0.227748,-0.393019,-0.050363,7.640000,10.574322

-5.701796,-1.040502,11.091994,19.971176,-0.166883,0.134576,0.189986,7.644000,10.574322

-0.636329,7.464212,6.625282,19.988823,0.063074,0.027725,0.212103,7.648000,10.574322

-0.119005,0.473150,6.467211,19.968235,0.101178,-0.240070,0.133763,7.636000,10.574322

-1.390761,-4.862953,10.368698,19.991764,0.059877,-0.104441,0.022914,7.648000,10.574322

-4.204908,-2.271542,7.494675,19.977058,0.320743,0.084215,-0.022384,7.648000,10.574322

-3.333121,3.634576,3.550077,19.956469,-0.601750,0.247290,-0.037306,7.644000,10.574322

1.080899,4.733890,8.740085,19.956469,-0.052304,0.034653,-0.077542,7.636000,10.574322

2.235299,-2.896642,12.011682,19.944704,0.280774,-0.239004,-0.045566,7.636000,10.574322

2.120338,4.700360,10.768666,19.959410,-0.123982,-0.140679,-0.064485,7.640000,10.574322

0.542020,5.335040,8.890971,19.959410,0.129956,0.244092,0.045564,7.640000,10.574322

2.879559,8.168348,3.835085,19.956469,0.329270,-0.195837,-0.050896,7.644000,10.574322

0.597106,-3.397202,13.767231,19.959410,-0.825845,-0.238471,0.104718,7.640000,10.574322

4.199215,11.789618,9.386741,19.950586,0.916021,0.167351,0.007993,7.640000,10.574322

0.479750,-5.090480,8.105405,19.941763,-0.006473,-0.417534,0.027977,7.644000,10.574322

-7.363939,3.153177,11.384187,19.947645,-0.417091,0.469520,0.355193,7.644000,10.574322

1.911971,7.382782,6.962980,19.965292,-0.014200,-0.021304,0.332277,7.644000,10.574322

4.833895,0.422855,9.034673,19.935881,0.058278,-0.478554,0.452452,7.644000,10.574322

-1.266220,-1.474001,10.579460,19.956469,-0.238828,-0.070067,0.415947,7.644000,10.574322

1.203046,3.332803,8.119775,19.944704,-0.229502,0.059434,0.578489,7.640000,10.574322

-2.468519,0.810848,12.562536,19.962351,-0.085878,0.142837,0.665888,7.640000,10.574322

-1.412316,6.039176,11.695539,19.962351,-0.006206,0.328295,0.658694,7.644000,21.837476

2.640057,4.915912,7.168952,19.950586,0.293831,-0.177984,0.464976,7.644000,21.837476

0.498910,0.422855,7.207272,19.947645,0.314348,0.040782,0.508676,7.644000,21.837476

-5.883817,-6.465221,16.037708,19.950586,-0.534335,0.408500,0.562235,7.644000,21.837476

4.309386,10.333446,12.732583,19.953527,0.317546,0.353875,0.501748,7.656000,21.837476

2.091598,2.271810,5.442143,19.953527,0.564290,0.061832,0.185190,7.648000,21.837476

-0.827931,0.911439,8.934082,19.950586,-0.370993,0.071958,0.241147,7.648000,21.837476

1.310822,2.774764,12.054792,19.956469,-0.197793,0.284328,0.354127,7.636000,21.837476

2.630477,8.594662,10.263317,19.947645,0.748149,0.205988,0.055956,7.640000,21.837476

-2.573900,8.484490,12.229629,19.929998,-0.518347,0.572108,0.194516,7.640000,21.837476

0.094152,6.625956,10.550720,19.938822,-0.142102,0.272337,-0.343471,7.648000,21.837476

2.649637,6.961258,7.137816,19.929998,0.229080,0.011737,-0.579557,7.640000,21.837476

-1.761989,-5.813776,8.110195,19.941763,0.302357,-0.205963,-0.680813,7.636000,21.837476

-3.951036,-0.190270,9.046648,19.935881,-0.596687,0.269140,-0.651769,7.640000,21.837476

2.242484,2.846615,6.807304,19.932940,0.150474,-0.021837,-0.679747,7.640000,21.837476

-1.443451,-1.069242,6.186994,19.956469,-0.291321,-0.108437,-0.559573,7.636000,21.837476

0.862953,3.998619,15.369499,19.944704,0.189910,0.130046,-0.392234,7.640000,21.837476

0.721647,4.978182,3.784789,19.953527,0.572284,-0.051681,-0.321622,7.644000,21.837476

-2.906808,-0.602214,7.168952,19.953527,-0.408298,-0.111635,-0.152418,7.644000,21.414620

0.494120,2.681358,14.674944,19.953527,-0.216711,-0.295494,-0.051162,7.644000,21.414620

4.924906,8.630587,15.810183,19.932940,0.282639,-0.163595,-0.004265,7.644000,21.414620

0.501305,1.280272,8.366462,19.950586,0.691393,-0.240070,0.125502,7.648000,21.414620

-2.576295,3.074141,6.333090,19.953527,0.120897,-0.196104,0.200112,7.656000,21.414620

0.185162,-0.329181,3.427931,19.944704,0.010581,-0.351451,0.430602,7.648000,21.414620

-1.383576,-0.911171,11.901511,19.950586,-0.689682,0.008007,0.572893,7.640000,21.414620

1.373092,7.909686,14.219890,19.932940,0.181384,0.082350,0.371181,7.640000,21.414620

3.432809,1.977222,9.762758,19.941763,0.307687,-0.345856,0.373313,7.640000,21.414620

-0.360902,-6.309545,12.531401,19.950586,-0.260944,-0.044753,0.446590,7.640000,21.414620

-1.556017,4.719520,12.164963,19.941763,-0.279330,0.318169,0.476967,7.640000,21.414620

-0.404013,7.231895,14.346826,19.929998,-0.274800,0.167884,0.375711,7.640000,21.414620

4.505777,1.725745,2.968088,19.950586,0.458771,0.045578,0.137227,7.636000,21.414620

-0.588429,-0.887221,9.985496,19.944704,-0.686751,0.224641,0.134829,7.636000,21.414620

0.235458,3.454949,13.355288,19.924116,-0.002476,0.384518,0.206774,7.640000,21.414620

0.973124,3.548355,11.673985,19.938822,-0.225771,0.250488,-0.038905,7.648000,21.414620

2.129918,9.416153,8.519743,19.932940,0.139815,0.248356,-0.160945,7.644000,21.414620

1.808985,-0.990207,9.710068,19.944704,0.500606,-0.016774,-0.165741,7.644000,21.414620

-3.060089,0.307894,8.649075,19.947645,-0.313437,0.400506,-0.112182,7.644000,21.414620

-3.258876,4.115975,11.338681,19.947645,-0.355272,0.307244,-0.143092,7.640000,21.414620

2.884349,14.012196,5.020619,19.944704,0.673806,0.244092,-0.296308,7.648000,21.414620

-2.863698,-7.425624,11.089600,19.932940,0.187512,-0.255525,-0.313628,7.648000,21.414620

-6.005963,3.289693,12.677497,19.944704,-0.329159,0.302981,-0.279254,7.648000,21.414620

1.806591,4.235726,9.209509,19.953527,-0.034185,-0.185445,-0.419946,7.648000,21.414620

1.461708,1.663475,8.914922,19.935881,0.010848,-0.342924,-0.426075,7.644000,21.414620

2.012562,3.531590,11.072834,19.929998,0.123561,0.010405,-0.426608,7.640000,21.414620

-0.995582,2.020333,10.040581,19.912352,0.260256,-0.185978,-0.517738,7.648000,21.414620

-1.718878,-2.618820,9.681328,19.935881,0.463567,-0.390888,-0.337343,7.648000,21.414620

-4.633617,-0.719570,10.907578,19.918234,-0.644917,-0.155601,-0.206243,7.640000,21.414620

2.141893,5.370965,6.060058,19.932940,0.787319,0.219844,-0.008528,7.644000,21.414620

-5.917347,-0.959072,6.510322,19.912352,-0.366463,-0.368238,-0.031710,7.648000,21.414620

2.316730,8.134818,7.731781,19.915293,0.129423,-0.238471,0.021582,7.644000,21.414620

0.362394,-5.559904,11.791340,19.915293,-0.389646,-0.416735,0.116443,7.636000,21.414620

0.328863,8.477305,10.510005,19.915293,0.495276,0.189468,0.098590,7.636000,21.414620

1.605409,-3.064294,4.153622,19.897646,0.362578,-0.552097,0.061552,7.644000,21.414620

-3.187025,5.172179,10.665681,19.897646,-0.830907,0.073556,0.305631,7.632000,21.414620

3.679496,0.451595,13.000825,19.900587,0.374835,0.202791,0.619524,7.648000,21.414620

-2.339188,8.118052,6.515111,19.874117,0.017776,0.013069,0.304832,7.648000,21.414620

0.570760,2.971155,8.718530,19.909410,0.002587,-0.131620,0.273123,7.648000,21.414620

1.116825,1.019215,11.906301,19.885881,-0.186068,-0.013577,0.500948,7.648000,21.414620

2.249669,4.760235,6.306745,19.874117,0.427328,0.127382,0.466841,7.648000,21.414620

-3.311566,-0.887221,11.513517,19.888823,-0.657174,-0.040490,0.454584,7.640000,21.414620

1.365907,6.058336,10.354328,19.859411,-0.040580,0.119654,0.588614,7.636000,21.414620

1.258131,-2.077546,10.054951,19.856470,0.479555,-0.206762,0.389567,7.640000,21.414620

-6.597533,-1.380595,13.314572,19.874117,-0.272669,0.165220,0.401025,7.640000,21.414620

-0.978817,-0.089679,4.570356,19.879999,0.209096,0.252619,0.439662,7.640000,21.414620

2.685563,10.038858,11.865585,19.865294,-0.104264,0.158558,0.165738,7.644000,21.414620

2.264039,-2.635585,8.977192,19.850588,0.575482,0.039716,0.156679,7.648000,21.414620

-5.045560,-0.262121,13.654665,19.862352,-0.222840,0.541997,0.164406,7.656000,10.654655

0.424664,6.499020,7.367738,19.844706,0.323408,0.265143,0.004529,7.648000,10.654655

-0.423173,0.631221,9.999866,19.859411,0.171524,0.093541,-0.100191,7.644000,10.654655

1.021024,2.552027,10.069321,19.868235,0.240805,0.230769,-0.051162,7.648000,10.654655

-1.512907,2.827454,4.603886,19.841763,-0.027523,0.269939,-0.091132,7.648000,10.654655

-2.573900,1.275482,7.923383,19.847647,0.165929,0.325896,0.039702,7.644000,10.654655

-7.689662,2.034703,12.778088,19.835880,-0.370194,0.339220,0.007993,7.656000,10.654655

1.955082,8.072547,6.558222,19.832939,0.125426,0.033321,-0.128436,7.652000,10.654655

0.652191,-1.909894,7.578500,19.835880,0.207497,-0.359712,-0.189190,7.656000,10.654655

-6.401141,-1.854809,13.755256,19.827057,-0.298782,0.427152,-0.063686,7.644000,10.654655

0.417479,4.001014,12.042817,19.827057,-0.141303,0.001079,-0.188923,7.648000,10.654655

2.920275,7.423497,9.226274,19.835880,0.623711,-0.172388,-0.192920,7.652000,10.654655

0.154027,-1.850019,12.552957,19.829998,-0.113857,-0.277641,-0.221965,7.652000,10.654655

3.727396,7.083404,11.130315,19.827057,0.193907,-0.104707,-0.195052,7.640000,10.654655

0.058226,-1.715898,1.562211,19.818233,0.415870,-0.168924,-0.334145,7.644000,10.654655

-4.027677,-8.565654,13.242722,19.821175,-0.633725,-0.232875,-0.451922,7.632000,10.654655

0.977914,2.990316,10.155541,19.818233,0.338063,0.138307,-0.238219,7.640000,10.654655

0.915643,2.489757,7.300678,19.779999,-0.016865,0.038916,-0.386372,7.640000,10.654655

0.055831,4.551868,7.101892,19.777058,-0.226571,0.019997,-0.436733,7.632000,10.654655

0.091757,5.088353,14.160014,19.782940,-0.195927,0.004809,-0.349334,7.640000,10.654655

2.747833,3.852523,10.083691,19.774117,0.443316,-0.161730,-0.384507,7.636000,10.654655

-1.134493,6.822347,6.836044,19.782940,0.343926,-0.069267,-0.605671,7.648000,10.654655

0.932408,-0.939911,8.617939,19.756470,0.025769,-0.185179,-0.272859,7.652000,10.654655

-0.765660,-1.078822,11.147079,19.750587,-0.495165,-0.109770,-0.318158,7.656000,10.654655

4.405187,11.346539,8.021579,19.765293,0.836881,0.116190,-0.404491,7.656000,10.654655

-3.021769,-7.289108,5.758286,19.747646,-0.906316,-0.034094,-0.314960,7.652000,21.206360

0.352814,10.268781,14.409097,19.753529,0.284238,0.617406,-0.143891,7.644000,21.206360

1.126405,-6.604132,8.627519,19.744705,0.114768,-0.288566,-0.259802,7.648000,21.206360

-4.336635,6.319393,9.003537,19.735882,-0.285459,0.275535,-0.065285,7.648000,21.206360

4.256696,2.278995,9.568762,19.738823,0.183249,-0.102575,-0.038105,7.652000,21.206360

-2.547555,-2.410453,10.028605,19.732941,-0.063495,-0.097512,0.167071,7.644000,21.206360

-2.559530,2.542447,10.505215,19.730000,-0.268405,0.009073,0.274455,7.640000,21.206360

1.318007,3.457345,8.320956,19.738823,0.432658,-0.000787,0.180127,7.656000,21.206360

1.143170,-3.459472,9.415481,19.765293,0.009515,-0.086588,0.221163,7.652000,21.206360

1.056949,5.191339,11.175820,19.765293,-0.361933,-0.184646,0.151349,7.644000,21.206360

1.916761,10.077179,9.956755,19.765293,0.683932,0.077820,0.023181,7.644000,21.206360

-1.809889,-2.532599,9.906460,19.771175,-0.010203,-0.150805,0.017852,7.652000,21.206360

-3.213370,1.708980,11.218930,19.765293,-0.098136,-0.079393,-0.054893,7.644000,21.206360

-2.411039,4.738680,11.621294,19.759411,0.011647,0.139906,-0.022651,7.648000,21.206360

0.779127,3.524405,8.831096,19.771175,0.184048,0.204123,0.146020,7.652000,21.206360

-4.686307,0.863538,7.250382,19.765293,-0.310773,-0.041555,0.089530,7.652000,21.206360

-3.654054,5.624837,16.270025,19.774117,-0.369128,-0.054878,0.128434,7.652000,21.206360

3.198097,1.788016,7.338998,19.788822,0.532048,-0.216355,0.108182,7.644000,21.206360

-4.511471,-1.979350,3.938071,19.774117,-0.251884,-0.540640,-0.047965,7.644000,21.206360

-1.556017,0.324659,13.431929,19.779999,0.099047,0.224907,0.137493,7.644000,21.206360

-2.772687,1.059930,2.216052,19.794704,-0.011535,-0.062339,0.082602,7.648000,21.206360

-1.714088,3.991434,7.765312,19.791763,-0.448267,-0.001053,0.091129,7.644000,21.206360

2.489171,6.271492,9.317285,19.797646,0.472094,-0.115898,-0.018654,7.648000,21.206360

-3.333121,-10.733146,12.009287,19.788822,0.091053,-0.132686,-0.040237,7.656000,21.206360

-0.593219,15.267186,7.214457,19.797646,-0.227636,0.244625,-0.141493,7.648000,21.201697

5.894889,3.371124,6.539062,19.800587,0.355650,-0.498805,-0.321888,7.648000,21.201697

-0.619564,-2.755336,13.645085,19.779999,-0.076819,-0.062872,-0.036507,7.652000,21.201697

0.939593,5.461976,11.958991,19.779999,0.019641,-0.028765,-0.070347,7.652000,21.201697

-0.832721,8.055782,6.838439,19.806469,-0.102665,0.195063,-0.043968,7.648000,21.201697

2.060463,-2.587685,13.151711,19.803528,0.141947,-0.039424,0.030642,7.656000,21.201697

0.941988,5.871524,8.596384,19.797646,0.270915,0.066095,0.011723,7.656000,21.201697

1.631754,5.325460,4.646996,19.809410,-0.101600,-0.098045,-0.104988,7.656000,21.201697

-2.535580,2.130504,13.233142,19.803528,-0.046442,0.039716,-0.083404,7.652000,21.201697

-0.720155,-0.283676,11.199770,19.809410,0.023904,0.095140,0.007193,7.656000,21.201697

-2.231412,4.221356,5.945097,19.803528,-0.020329,0.284062,-0.018121,7.652000,21.201697

-2.478099,-0.262121,10.787827,19.800587,-0.129845,0.097272,0.048228,7.644000,21.201697

1.385067,-2.800842,14.993481,19.809410,-0.308108,-0.036226,0.081536,7.656000,21.201697

-0.236361,3.404654,9.396320,19.797646,-0.123716,0.175612,0.030109,7.660000,21.201697

-5.838312,2.068233,9.458591,19.788822,-0.426417,0.202524,0.117509,7.660000,21.201697

0.676141,8.647352,3.806345,19.794704,0.446247,-0.045019,0.083934,7.648000,21.201697

-0.530949,-8.838686,12.509846,19.797646,-0.173811,-0.246199,0.338939,7.644000,21.201697

-1.168024,-0.441747,10.862072,19.791763,-0.231367,0.445538,0.709055,7.652000,21.201697

-1.924850,7.603124,8.368856,19.797646,0.046021,0.390647,0.350130,7.652000,21.201697

0.872533,7.490558,8.191626,19.824116,-0.083480,0.020264,0.285114,7.644000,21.201697

1.684445,-7.322638,20.102058,19.809410,-0.259345,-0.440983,0.357591,7.648000,21.201697

0.709672,13.209865,10.847702,19.782940,0.883512,0.259814,0.119907,7.656000,21.201697

-5.503009,-4.577946,1.368215,19.809410,-0.052038,-0.058875,-0.014124,7.648000,21.201697

-1.057853,4.839271,8.045529,19.809410,-0.368329,0.424221,0.147885,7.648000,21.201697

-1.273405,4.834481,4.139252,19.809410,0.583475,0.526276,-0.044501,7.656000,21.201697

-5.637130,-1.902709,5.279282,19.794704,-0.471982,-0.216888,-0.329082,7.648000,21.414126

-4.985685,0.554581,10.876443,19.806469,-0.224439,0.316570,-0.369318,7.644000,21.414126

-1.021928,0.928204,8.819120,19.794704,-0.035783,0.024794,-0.431138,7.652000,21.414126

0.724042,-1.926659,14.710869,19.818233,-0.396574,-0.220618,-0.267530,7.648000,21.414126

3.497474,8.065362,7.853928,19.791763,0.455041,0.376258,-0.274724,7.652000,21.414126

-0.516578,0.018096,3.945256,19.791763,0.455573,-0.337062,-0.355729,7.652000,21.414126

-5.275482,-5.042580,16.420912,19.797646,-1.008371,-0.002652,-0.079674,7.652000,21.414126

5.875729,7.270216,16.761005,19.803528,0.425463,0.113526,-0.207309,7.652000,21.414126

1.052159,4.434513,4.608676,19.806469,1.077763,-0.259522,-0.394366,7.652000,21.414126

1.241366,1.047955,8.972402,19.797646,0.022838,-0.620045,-0.596611,7.644000,21.414126

0.613871,2.537657,11.856006,19.797646,0.276777,-0.088186,-0.508412,7.640000,21.414126

-1.721273,-1.871574,12.069162,19.788822,0.147809,-0.228079,-0.695735,7.644000,21.414126

3.545375,7.083404,7.729386,19.809410,0.283439,-0.248330,-0.610200,7.644000,21.414126

2.556232,-2.942148,6.143884,19.788822,-0.249486,-0.345589,-0.452188,7.636000,21.414126

0.697697,9.111986,11.858400,19.803528,0.414805,0.062898,-0.441796,7.648000,21.414126

-0.662675,-2.776891,6.007368,19.797646,0.010581,-0.278707,-0.374115,7.636000,21.414126

-0.945287,5.857154,11.812895,19.797646,-0.167149,0.003743,-0.305634,7.644000,21.414126

1.703605,0.101922,4.007526,19.785881,0.381763,-0.539840,-0.286182,7.644000,21.414126

0.599501,-0.525573,10.507609,19.785881,-0.935894,-0.046085,-0.022384,7.644000,21.414126

0.474960,6.046361,14.605488,19.800587,-0.365930,0.319501,0.133763,7.648000,21.414126

1.152750,2.461016,14.282161,19.777058,-0.032319,-0.174787,-0.003732,7.636000,21.414126

0.750387,4.566239,11.171030,19.794704,0.309818,-0.316012,-0.034375,7.640000,21.414126

-1.115333,-1.921869,0.862866,19.788822,0.159534,-0.335730,0.095392,7.640000,21.414126

-2.887648,-6.290385,13.099021,19.777058,-1.025425,-0.085255,0.449254,7.636000,21.414126

-1.045878,8.587477,14.061818,19.765293,0.457705,0.385318,0.502014,7.640000,20.640415

-1.682953,-4.932409,6.151069,19.779999,0.335132,-0.793512,0.113245,7.640000,20.640415

-4.164193,4.080050,9.130473,19.774117,-0.388047,0.280864,0.620057,7.640000,20.640415

0.987494,0.774923,8.208390,19.788822,0.151007,-0.078061,0.621922,7.644000,20.640415

-2.238597,0.461175,5.741520,19.756470,0.144878,0.107397,0.722911,7.644000,20.640415

-0.751290,-4.122892,9.027488,19.765293,-0.004074,-0.507332,0.497484,7.644000,20.640415

-2.164352,1.857471,12.524216,19.771175,0.067871,0.177477,0.685607,7.644000,20.640415

-1.833839,1.605994,8.237131,19.771175,0.015910,0.105265,0.555839,7.648000,20.640415

-5.031190,8.743153,8.740085,19.765293,0.101978,0.471651,0.491355,7.648000,20.640415

0.661771,3.342384,9.659773,19.777058,0.488348,-0.233941,0.265662,7.652000,20.640415

-2.430199,-4.733622,10.699211,19.765293,-0.613208,0.042114,0.375977,7.652000,20.640415

-3.948641,6.805582,12.883469,19.777058,-0.209250,0.724791,0.226492,7.648000,20.640415

1.768270,9.349092,9.398716,19.768234,0.617316,-0.173721,-0.145756,7.652000,20.640415

-1.498536,-3.229550,1.428090,19.756470,0.297828,-0.318676,-0.162011,7.648000,20.640415

-6.870565,-1.967375,13.269067,19.756470,-0.773085,0.323498,-0.025315,7.640000,20.640415

-1.199159,1.685030,9.832214,19.771175,-0.196460,0.386916,-0.153484,7.640000,20.640415

-0.875831,3.998619,10.610596,19.762352,-0.210583,0.111927,-0.215569,7.640000,20.640415

2.031722,1.610784,7.116261,19.753529,-0.038182,-0.042621,-0.305634,7.640000,20.640415

-1.168024,-0.973442,8.069479,19.788822,-0.041646,0.068760,-0.342139,7.640000,20.640415

-1.503326,1.301827,5.046965,19.771175,-0.343814,0.081817,-0.304834,7.640000,20.640415

-3.187025,0.710257,14.016314,19.774117,-0.426950,0.252353,-0.454320,7.640000,20.640415

2.757413,4.288416,11.748230,19.756470,0.304489,-0.110836,-0.475637,7.640000,20.640415

2.067648,2.283785,7.168952,19.788822,0.011647,-0.048750,-0.280053,7.644000,20.640415

3.691471,5.160203,9.298124,19.774117,0.338863,-0.159598,-0.195052,7.640000,20.640415

0.728832,1.258717,9.072993,19.774117,-0.018197,-0.145742,-0.043168,7.648000,20.640415

-5.270692,-1.725478,12.239208,19.785881,-0.299315,-0.017840,0.003196,7.640000,20.640415

1.547928,13.011078,5.846901,19.765293,0.175521,-0.075663,-0.138562,7.648000,20.428134

1.770665,-4.949174,8.514953,19.762352,-0.000077,-0.184113,0.015720,7.648000,20.428134

-5.685030,-0.197455,8.186835,19.768234,-1.132809,0.037850,0.129233,7.640000,20.428134

7.413332,10.577738,14.052238,19.741764,0.341261,-0.041289,0.002397,7.644000,20.428134

-1.848209,-7.435204,11.626083,19.744705,-0.072022,-0.519589,-0.149753,7.644000,20.428134

-3.163075,6.937308,8.158095,19.762352,-0.135440,0.516684,0.068213,7.640000,20.428134

2.735858,3.706426,8.673024,19.753529,0.113436,0.007740,0.110581,7.644000,20.428134

-0.504603,4.870406,12.864308,19.750587,-0.082681,0.178809,0.192651,7.644000,20.428134

1.157540,5.325460,10.457314,19.741764,0.095316,0.169483,0.243545,7.652000,20.428134

1.102455,1.320987,8.179650,19.738823,0.112903,0.063431,0.318688,7.652000,20.428134

-1.647028,3.110067,9.240644,19.759411,-0.395774,0.083948,0.257401,7.644000,20.428134

1.121615,1.984407,14.267790,19.753529,0.261855,0.282197,0.242480,7.652000,20.428134

0.007931,-3.251105,10.538745,19.750587,-0.144234,0.041048,0.041833,7.640000,20.428134

-0.200436,7.485767,6.385780,19.747646,0.206964,0.384785,-0.054360,7.648000,20.428134

1.140775,2.475386,5.681645,19.747646,0.422532,0.160690,-0.052761,7.644000,20.428134

-3.117570,-0.566288,8.433522,19.735882,-0.018996,0.162288,-0.121242,7.652000,20.428134

-1.922455,2.271810,7.731781,19.730000,0.342060,0.125783,-0.143625,7.656000,20.428134

-0.013624,-1.639257,10.890813,19.738823,-0.483440,0.156160,-0.046099,7.652000,20.428134

1.444943,7.617494,3.722519,19.727058,0.698054,0.360537,-0.135098,7.652000,20.428134

-6.049074,-4.379159,10.742321,19.735882,-0.439741,-0.212091,-0.086335,7.644000,20.428134

-3.948641,2.525682,14.615068,19.741764,-0.582831,0.223841,0.049028,7.652000,20.428134

2.838844,8.326420,7.698251,19.738823,0.401215,0.123118,-0.273125,7.660000,20.428134

-0.978817,0.856353,11.353051,19.750587,0.032697,0.014135,-0.158014,7.660000,20.428134

1.277291,4.233331,7.734177,19.771175,0.270648,-0.043687,-0.395965,7.664000,20.428134

-0.468678,1.929322,7.449169,19.741764,0.311950,-0.266183,-0.345603,7.656000,20.428134

-1.821864,-2.120656,6.443261,19.747646,0.000189,-0.206762,-0.367187,7.652000,20.428134

-0.633934,2.420301,7.461144,19.738823,-0.191397,-0.003185,-0.409554,7.648000,20.428134

1.356327,-1.035712,10.701606,19.750587,0.227215,-0.000254,-0.443661,7.644000,20.428134

-1.932035,-4.621056,11.333891,19.753529,-0.100267,-0.106039,-0.661361,7.644000,20.428134

-1.984725,2.010753,5.837321,19.747646,-0.487171,-0.263785,-0.535058,7.644000,20.428134

3.255578,2.619088,13.973203,19.735882,-0.289189,-0.023969,-0.317092,7.632000,20.428134

1.193465,8.786263,11.012959,19.721176,0.322342,-0.098578,-0.377845,7.640000,20.428134

3.248392,0.183353,11.058464,19.727058,0.235475,-0.329068,-0.321355,7.640000,20.428134

-4.037257,5.749378,8.850256,19.732941,0.238939,-0.190508,-0.196118,7.644000,20.428134

0.225878,-0.463302,2.230422,19.741764,0.116100,-0.318943,-0.068482,7.644000,20.428134

-2.439779,4.812926,14.447416,19.724117,-0.635058,-0.097512,-0.018387,7.648000,20.428134

2.896324,4.192616,4.529641,19.718235,0.953592,-0.096980,-0.053560,7.652000,20.428134

-3.110384,-5.806591,11.010564,19.715292,-1.069125,-0.437519,0.015453,7.644000,20.428134

2.690353,11.277083,12.071557,19.724117,0.644229,0.421823,0.162807,7.648000,20.428134

3.885468,-0.408217,5.696015,19.732941,0.065472,-0.271779,0.165472,7.648000,20.428134

-2.952313,2.283785,14.708474,19.753529,-0.584163,-0.177984,0.149484,7.644000,20.428134

3.514239,4.446488,6.728268,19.750587,0.732161,0.071691,0.008259,7.656000,20.428134

-6.250255,-4.841398,7.782077,19.756470,-0.219376,-0.251528,0.088997,7.652000,20.428134

-2.930758,2.176009,7.571315,19.738823,-0.505290,0.078353,0.250207,7.644000,20.428134

4.968016,3.239398,16.329901,19.744705,-0.109594,-0.340793,0.136427,7.652000,20.428134

-2.729577,2.863380,12.840359,19.724117,-0.519413,0.300849,0.403689,7.652000,20.428134

2.980150,8.110868,5.739125,19.730000,0.635969,0.165752,0.199313,7.644000,20.428134

-2.731972,-5.322797,11.570998,19.738823,-0.242292,-0.318143,0.356525,7.648000,20.428134

0.937198,4.954232,10.318403,19.735882,-0.337952,0.014402,0.454051,7.644000,20.428134

-1.441056,9.073666,11.666799,19.724117,0.216024,0.222775,0.231821,7.640000,20.428134

3.442389,0.087552,11.341076,19.738823,0.452376,-0.424728,0.061285,7.648000,10.348812

-2.032626,1.423973,7.236012,19.724117,-0.033385,0.056236,0.346400,7.648000,10.348812

-2.372719,3.536380,7.904223,19.730000,-0.073355,-0.009047,0.253404,7.648000,10.348812

-2.066156,5.294325,8.124565,19.741764,0.010315,0.007740,0.224893,7.656000,10.348812

0.530045,6.321788,8.634704,19.735882,0.296495,0.247290,0.227291,7.656000,10.348812

0.496515,-2.446379,11.357841,19.727058,-0.432013,-0.181182,0.214501,7.652000,10.348812

-1.144074,5.878709,9.834609,19.724117,0.148076,-0.029298,0.162541,7.656000,10.348812

-1.024323,1.047955,11.520702,19.724117,-0.129845,-0.127889,0.167604,7.652000,10.348812

0.716857,4.156691,12.229629,19.712351,-0.305443,0.154028,0.209438,7.652000,10.348812

-2.152377,-0.396242,16.729870,19.727058,-0.295851,0.149765,0.078339,7.656000,10.348812

3.279528,4.357872,7.602450,19.730000,0.050817,0.327762,-0.011459,7.652000,10.348812

-0.811166,-0.860876,10.435759,19.706469,0.355650,-0.022370,-0.133765,7.644000,10.348812

-3.153495,4.242911,6.328300,19.718235,-0.204987,-0.014376,-0.164942,7.636000,10.348812

3.789667,-0.003459,16.212545,19.718235,-0.060298,0.184671,-0.182795,7.652000,10.348812

-0.504603,2.937625,2.963298,19.727058,0.235209,-0.002918,-0.360259,7.636000,10.348812

0.213903,-4.642612,11.913486,19.735882,-0.742975,-0.128156,-0.383174,7.636000,10.348812

-0.950077,5.799674,10.598620,19.727058,0.171258,0.428484,-0.280053,7.640000,10.348812

1.385067,2.908885,10.332773,19.738823,-0.125848,-0.083656,-0.451922,7.636000,10.348812

3.851937,8.889249,9.346025,19.730000,0.698054,-0.013310,-0.262733,7.644000,10.348812

0.359999,-0.101654,7.559340,19.706469,0.047886,-0.120961,-0.341340,7.648000,10.348812

1.418597,7.224710,12.320640,19.709410,-0.123183,-0.006915,-0.297373,7.652000,10.348812

1.600619,2.482572,2.503454,19.694704,0.795580,-0.065004,-0.001600,7.652000,10.348812

-4.190538,-5.135985,13.491804,19.712351,-0.537532,0.118589,0.022914,7.664000,10.348812

-1.591942,8.338394,9.750783,19.706469,0.188045,0.432748,-0.159079,7.664000,10.348812

0.336049,4.527918,8.426337,19.712351,0.089188,-0.037026,-0.110317,7.664000,10.348812

-0.154930,-1.169833,8.011999,19.715292,0.242670,-0.192640,-0.131367,7.656000,20.755493

0.774337,-2.072756,10.268107,19.700586,-0.640653,-0.021837,-0.087667,7.648000,20.755493

0.671351,8.630587,14.928816,19.691763,0.135818,0.349079,-0.177732,7.656000,20.755493

4.364471,5.332645,6.151069,19.712351,0.920284,-0.127623,-0.198249,7.648000,20.755493

3.135827,4.029754,7.458749,19.700586,0.594667,-0.195304,-0.177732,7.652000,20.755493

-0.341742,0.525841,8.122169,19.718235,0.037760,-0.117497,-0.051429,7.656000,20.755493

-1.843419,-2.968493,9.104128,19.697645,-0.185002,-0.002119,0.112712,7.652000,20.755493

-1.359625,4.511153,9.137658,19.682940,0.258924,0.095939,0.017852,7.652000,20.755493

-3.567833,-6.625688,12.167358,19.697645,-0.581499,0.010671,0.124703,7.648000,20.755493

-5.414393,0.530631,12.380515,19.715292,-0.513817,0.110062,0.234486,7.644000,20.755493

3.775297,10.237645,8.838281,19.703527,0.253595,0.232102,0.258734,7.652000,20.755493

-0.629144,-4.364789,9.769943,19.694704,-0.359802,0.024261,0.271524,7.644000,20.755493

-5.186866,2.655013,10.933923,19.691763,-0.197793,0.532671,0.274455,7.644000,20.755493

-0.861461,4.925492,11.781760,19.679998,-0.271336,0.088478,-0.087934,7.640000,20.755493

4.192030,5.768538,5.693620,19.688822,0.060143,0.019997,-0.109784,7.648000,20.755493

-1.747618,-2.228432,8.778405,19.688822,-0.168215,0.001345,-0.290179,7.644000,20.755493

-2.954708,6.829532,14.346826,19.677057,-0.137306,0.588362,-0.292577,7.652000,20.755493

-0.916547,3.191497,10.469289,19.694704,0.358315,-0.350918,-0.694669,7.652000,20.755493

2.038908,-2.029645,9.092153,19.691763,0.302890,-0.465231,-0.616595,7.664000,20.755493

0.228273,5.634418,7.818002,19.700586,0.034030,0.153762,-0.518804,7.664000,20.755493

-1.402736,-0.628559,6.124723,19.685881,0.165662,0.177210,-0.661361,7.664000,20.755493

-2.494864,0.762947,10.854887,19.679998,-0.230035,0.062365,-0.724513,7.664000,20.755493

-3.570228,1.934112,14.478552,19.697645,0.185913,0.047177,-0.936084,7.664000,20.755493

1.478473,1.440738,12.816408,19.709410,0.102777,-0.272045,-0.851349,7.664000,20.755493

0.134867,2.530472,7.573710,19.700586,0.362045,-0.032496,-0.823370,7.660000,20.755493

1.519188,1.371283,9.300520,19.691763,0.026302,-0.148140,-0.723181,7.652000,20.755493

-1.400341,3.481295,5.159531,19.694704,0.319145,0.058368,-0.646706,7.660000,20.755493

-5.936508,-0.226196,11.733860,19.727058,-0.583897,-0.123093,-0.572896,7.652000,20.755493

0.968334,0.968919,10.325588,19.706469,0.569619,0.005609,-0.374914,7.660000,20.755493

-6.269415,2.985526,5.456513,19.709410,-0.190598,-0.430324,-0.424210,7.656000,20.755493

7.777374,7.265426,7.659931,19.700586,-0.243091,-0.352517,-0.179597,7.660000,20.755493

1.864071,5.167388,11.659614,19.709410,0.400682,0.160157,0.139891,7.660000,20.755493

-1.898505,2.286180,12.224838,19.700586,-0.120252,-0.488146,-0.048764,7.664000,20.755493

3.387303,2.650223,5.681645,19.712351,0.488881,-0.194771,0.217166,7.668000,20.755493

-2.370324,-0.566288,4.819438,19.709410,-0.131976,-0.208094,0.444192,7.668000,20.755493

-3.484008,-0.870456,9.834609,19.703527,0.056146,0.009339,0.519334,7.664000,20.755493

-3.040929,-0.688434,13.295412,19.706469,-0.447468,-0.112168,0.525196,7.656000,20.755493

0.934803,5.287139,14.610278,19.712351,0.111304,-0.313081,0.363986,7.660000,20.755493

2.604132,6.348133,10.196257,19.700586,0.364177,-0.123892,0.350663,7.656000,20.755493

1.222206,-6.199374,6.002577,19.700586,0.127025,-0.369304,0.259000,7.656000,20.755493

-4.480336,8.151583,8.232341,19.703527,0.010848,0.305112,0.383172,7.652000,20.755493

1.169515,-2.796052,8.335326,19.700586,0.095583,-0.233941,0.288045,7.652000,20.755493

0.230668,0.212093,11.377002,19.694704,-0.094405,-0.289365,0.104985,7.652000,20.755493

0.237853,8.213854,7.243197,19.712351,0.858198,0.329893,-0.022917,7.664000,20.755493

-1.639843,1.680240,3.744074,19.694704,0.050284,-0.322673,0.012256,7.656000,20.755493

-0.363297,-1.438075,7.964098,19.691763,-0.153560,0.022929,0.122038,7.660000,20.755493

-1.191974,3.395074,12.778088,19.712351,-0.335021,0.136708,0.062617,7.656000,20.755493

-1.481771,4.305182,13.760046,19.718235,0.462235,0.013869,-0.182528,7.664000,20.755493

0.692906,2.578372,1.832848,19.712351,0.121163,-0.431123,-0.022118,7.660000,10.611793

-5.598810,-1.471606,10.069321,19.679998,-0.740577,-0.098312,0.066348,7.652000,10.611793

-0.066315,7.330091,12.452366,19.679998,0.484618,0.329893,0.132963,7.656000,10.611793

0.915643,-4.530046,11.197375,19.688822,0.168593,-0.828685,0.116709,7.660000,10.611793

-4.533026,3.617811,11.468013,19.674116,-0.319832,0.131912,0.422075,7.664000,10.611793

3.918998,-0.489648,6.862390,19.679998,0.213625,-0.000254,0.271257,7.664000,10.611793

-0.629144,2.449041,6.819279,19.679998,-0.040313,-0.170790,0.324550,7.664000,10.611793

1.222206,-0.609399,15.017431,19.674116,0.245601,-0.342125,0.116709,7.656000,10.611793

-2.018256,0.473150,12.557746,19.682940,0.052149,-0.134551,-0.089533,7.644000,10.611793

0.910853,0.961734,2.148991,19.668234,0.474492,-0.187843,0.009058,7.648000,10.611793

-2.518815,-2.362553,13.340918,19.659410,-0.619869,-0.001852,0.035172,7.648000,10.611793

-2.590665,1.179681,11.506332,19.638823,0.110505,0.300050,0.021316,7.644000,10.611793

1.100060,7.880946,8.373647,19.638823,-0.029921,-0.003984,-0.063419,7.652000,10.611793

4.151315,1.198841,8.914922,19.641764,0.069203,0.044512,0.034639,7.652000,10.611793

0.271383,-0.846506,11.429692,19.632940,0.045488,0.071425,-0.180663,7.644000,10.611793

-0.511788,7.097775,13.194821,19.638823,0.288501,0.091942,-0.218234,7.656000,10.611793

2.733463,6.036781,9.592712,19.629999,0.164330,-0.026101,-0.033309,7.656000,10.611793

0.839003,1.043165,7.291098,19.615294,0.490214,0.018932,-0.164675,7.656000,10.611793

-3.445687,2.846615,11.683564,19.621176,-0.361401,0.086613,-0.057024,7.660000,10.611793

-0.332162,1.021610,5.106840,19.615294,-0.271603,0.016800,-0.003732,7.652000,10.611793

1.032999,1.397628,16.171831,19.585880,-0.626264,0.236898,-0.078341,7.644000,10.611793

2.285594,2.128109,13.692986,19.588821,0.204566,0.070625,-0.224896,7.652000,10.611793

0.855768,5.773329,9.520862,19.585880,0.107573,0.035452,-0.284317,7.652000,10.611793

-0.329767,-1.579381,5.868456,19.585880,0.278376,-0.142811,-0.283784,7.652000,10.611793

-1.750014,0.935389,11.309941,19.594706,-0.511152,0.130046,-0.283251,7.648000,10.611793

2.814894,7.512113,12.526611,19.594706,0.457172,0.265409,-0.333879,7.648000,10.611793

5.073397,3.040611,8.795171,19.582939,0.667145,-0.092716,-0.239018,7.660000,20.836313

-4.533026,0.480335,0.048559,19.565292,0.272247,0.144968,-0.226228,7.652000,20.836313

-5.160521,-2.848742,10.407019,19.559410,-0.833572,0.226506,-0.000801,7.652000,20.836313

3.411253,5.840389,8.728109,19.579998,0.293298,0.522812,0.146819,7.648000,20.836313

-2.916388,-4.321679,13.855846,19.574116,-0.292387,-0.115099,-0.161211,7.644000,20.836313

3.705841,2.556817,5.054150,19.544704,0.424664,-0.184912,-0.135098,7.648000,20.836313

-3.922296,-6.503541,11.839240,19.532940,-0.326227,-0.095914,-0.062354,7.652000,20.836313

-2.138007,10.460382,7.511440,19.541763,0.479555,0.681357,-0.194252,7.652000,20.836313

-5.239557,-3.766034,6.186994,19.541763,0.067871,-0.228346,-0.433269,7.652000,20.836313

-3.867211,4.702755,10.181887,19.544704,-0.327027,0.145501,-0.328017,7.656000,20.836313

-0.964447,0.875513,13.419953,19.524117,-0.221774,-0.019439,-0.444727,7.660000,20.836313

-0.918942,2.513707,12.107483,19.541763,-0.708601,-0.013843,-0.338675,7.652000,20.836313

1.353932,6.894198,9.626243,19.529999,0.473959,0.258748,-0.405291,7.660000,20.836313

-1.014742,-4.568366,6.857599,19.529999,0.085990,-0.431390,-0.582755,7.652000,20.836313

-5.541329,-1.208153,14.533637,19.524117,-0.100534,0.216913,-0.300571,7.656000,20.836313

-0.121400,1.189261,5.870851,19.535881,0.192308,0.064230,-0.434335,7.656000,20.836313

-4.322265,-1.945820,4.012316,19.518234,0.036161,-0.069267,-0.522268,7.656000,20.836313

-4.109108,4.041729,6.280400,19.527058,-0.470917,0.202791,-0.585686,7.648000,20.836313

2.196979,1.309012,9.221484,19.515293,0.371638,-0.119895,-0.689606,7.648000,20.836313

0.029486,1.953272,10.929133,19.491764,-0.359269,-0.239004,-0.681079,7.648000,20.836313

1.610199,5.744588,7.875483,19.500587,-0.076552,-0.085522,-0.432736,7.652000,20.836313

1.868861,3.785462,7.336603,19.521175,0.225616,0.049575,-0.426341,7.648000,20.836313

-2.296078,-3.152910,6.043293,19.497646,0.073999,-0.309084,-0.393833,7.644000,20.836313

-2.221832,4.403378,12.390095,19.497646,-0.558849,-0.295494,-0.225695,7.644000,20.836313

5.080582,2.655013,9.540022,19.515293,0.545105,-0.196370,-0.094063,7.648000,20.643638

-1.488956,-0.254936,9.120893,19.512352,-0.169015,-0.224349,-0.170537,7.644000,20.643638

-0.763265,8.189903,11.094389,19.512352,0.101445,0.188402,0.000532,7.648000,20.643638

2.074833,4.077655,8.500583,19.521175,0.105442,-0.624842,-0.130035,7.656000,20.643638

0.446219,2.619088,9.410690,19.521175,-0.166616,-0.504134,0.077539,7.648000,20.643638

1.076110,3.543565,9.013118,19.532940,0.489681,-0.214223,0.075940,7.660000,20.643638

0.137262,3.510035,8.263476,19.518234,0.885910,-0.249130,0.258734,7.660000,20.643638

-3.797755,-5.483263,8.282637,19.512352,-0.519146,-0.432989,0.446590,7.652000,20.643638

-3.093619,3.572305,9.544811,19.538822,-0.008338,0.183339,0.619524,7.652000,20.643638

-0.887806,-1.177018,6.289979,19.527058,-0.014466,-0.054612,0.503346,7.648000,20.643638

-2.221832,-3.466657,16.250866,19.527058,-0.138904,-0.210759,0.444725,7.656000,20.643638

0.736017,8.144398,9.563972,19.538822,0.141947,0.011471,0.434332,7.656000,20.643638

-2.090106,-0.307626,2.422023,19.535881,0.239739,-0.084189,0.375178,7.652000,20.643638

-2.796637,1.661080,14.028288,19.544704,-0.037116,-0.141479,0.483362,7.648000,20.643638

-0.509393,1.083880,7.465934,19.524117,-0.007272,-0.002385,0.559303,7.656000,20.643638

-6.223910,1.287457,10.488449,19.535881,-0.318234,0.246757,0.387702,7.648000,20.643638

-0.894992,0.358189,11.183005,19.544704,-0.069624,-0.158799,0.450587,7.656000,20.643638

-3.407367,6.819952,8.143725,19.527058,0.017243,0.411431,0.452718,7.660000,20.643638

0.489330,1.258717,3.916515,19.541763,0.044155,-0.345056,0.163340,7.644000,20.643638

-6.140084,-4.862953,13.125366,19.529999,-0.223639,-0.039157,0.393564,7.648000,20.643638

-2.686466,5.902659,11.132710,19.550587,-0.236696,0.417027,0.394896,7.656000,20.643638

1.854491,4.362662,9.444221,19.529999,0.002321,-0.192640,0.097257,7.652000,20.643638

1.011444,2.676568,15.644926,19.535881,0.096382,-0.277375,0.273389,7.656000,20.643638

2.618502,5.711058,4.606281,19.532940,0.649292,-0.288833,0.156146,7.664000,20.643638

-4.231254,-2.769706,8.399992,19.541763,-0.398972,-0.255791,0.202244,7.656000,20.643638

-1.812284,1.031190,10.972243,19.532940,-0.470384,0.247290,0.277919,7.648000,20.643638

-1.773964,3.955508,10.715977,19.538822,0.072134,0.314438,0.187855,7.652000,20.817132

-0.700995,-0.391452,11.362632,19.547646,-0.471982,-0.011179,-0.006663,7.644000,20.817132

0.343234,0.521051,13.484619,19.553528,-0.269205,0.219311,0.090862,7.640000,20.817132

0.278568,1.716165,13.853452,19.547646,0.179785,0.116723,0.013055,7.648000,20.817132

1.468893,3.670501,5.741520,19.529999,-0.199125,-0.098045,0.039435,7.644000,20.817132

0.534835,5.222474,5.803791,19.524117,0.271181,0.248889,0.092994,7.652000,20.817132

0.137262,-4.079782,12.227234,19.529999,0.027368,-0.325604,0.026378,7.652000,20.817132

-1.120123,2.180799,10.670471,19.538822,-0.848760,-0.005050,0.251006,7.644000,20.817132

5.104532,8.788658,11.582973,19.535881,0.532581,0.528141,0.140691,7.656000,20.817132

-3.342701,-4.985099,3.358476,19.532940,0.222419,-0.284303,-0.046366,7.644000,20.817132

2.402951,-0.391452,5.097260,19.527058,0.026036,-0.322407,0.127901,7.656000,20.817132

-6.046679,0.743787,14.219890,19.521175,-0.256414,0.467122,0.146020,7.652000,20.817132

3.006495,8.177928,6.670788,19.521175,0.580811,-0.219552,0.067680,7.652000,20.817132

2.795734,-1.816489,8.804750,19.527058,-0.378454,-0.204097,0.104452,7.648000,20.817132

-0.918942,2.767579,12.418835,19.497646,0.056946,0.236898,-0.048764,7.648000,20.817132

1.605409,3.591465,12.162568,19.491764,0.404946,0.039982,-0.091132,7.648000,20.817132

-0.624354,1.876631,8.282637,19.482941,0.216290,-0.092183,-0.107386,7.652000,20.817132

1.883231,-1.356645,2.558539,19.477058,0.193374,-0.026900,-0.116712,7.644000,20.817132

-2.873278,-0.446537,7.655141,19.485882,-0.602549,0.414362,0.069545,7.644000,20.817132

-1.623077,1.433553,12.327825,19.465292,0.171524,0.449269,0.004529,7.656000,20.817132

0.051041,-0.501623,8.529324,19.462351,-0.262543,0.057569,0.025313,7.648000,20.817132

-1.199159,7.253451,7.966493,19.453527,0.010048,0.465256,0.108982,7.644000,20.817132

3.219652,-1.042897,6.637258,19.462351,0.261056,-0.099378,-0.013591,7.652000,20.817132

-3.134335,-0.887221,15.683247,19.459410,-0.541263,0.030922,0.132164,7.644000,20.817132

3.269948,10.007723,10.850098,19.441763,0.300492,0.606215,0.005594,7.644000,20.817132

-3.254086,-4.482145,7.401269,19.424116,0.160333,-0.137748,-0.122041,7.648000,20.427682

-2.106871,3.828573,12.550561,19.427057,-0.508221,0.205189,0.062617,7.640000,20.427682

5.097347,8.180324,4.448210,19.406469,0.825423,0.202791,-0.123107,7.644000,20.427682

-8.518339,-3.806750,4.314089,19.421175,-0.583897,0.024261,-0.157214,7.648000,20.427682

3.262763,4.072865,7.473119,19.427057,-0.201257,0.110328,0.040767,7.640000,20.427682

1.212626,4.954232,9.175979,19.406469,0.607990,-0.161463,-0.366920,7.652000,20.427682

-4.664752,-3.974401,5.135580,19.421175,-0.165018,0.047177,-0.234755,7.656000,20.427682

-3.596574,3.510035,8.989167,19.409410,-0.451731,0.374126,-0.133499,7.652000,20.427682

-0.691415,6.827137,11.518308,19.400587,0.178452,0.126316,-0.388504,7.652000,20.427682

2.656822,-0.971047,7.894643,19.409410,0.221086,-0.316012,-0.457251,7.652000,20.427682

-1.805099,-1.394965,11.405742,19.382940,-0.330491,-0.111369,-0.228360,7.648000,20.427682

-1.055458,5.696688,9.190349,19.379999,0.347923,0.295520,-0.272859,7.652000,20.427682

1.423388,-0.623769,7.214457,19.388823,-0.286258,-0.383427,-0.268596,7.644000,20.427682

-0.075895,3.972274,12.723002,19.379999,0.087855,0.095406,-0.152684,7.644000,20.427682

2.371815,-1.818883,4.591911,19.394705,0.137950,-0.461500,-0.115380,7.640000,20.427682

-0.629144,-3.320561,6.464816,19.365294,0.120630,-0.171856,-0.135631,7.636000,20.427682

-4.624037,3.423814,10.308823,19.350588,-0.077884,0.164420,-0.026381,7.640000,20.427682

-1.129703,1.364097,8.273056,19.368235,-0.435211,-0.203298,-0.019187,7.636000,20.427682

0.920433,2.310130,13.618740,19.365294,0.146210,0.169483,-0.029579,7.640000,20.427682

0.697697,3.385494,6.828859,19.353529,-0.094405,-0.093516,-0.152418,7.644000,20.427682

0.316888,6.810372,10.519585,19.350588,0.088122,-0.155601,-0.053294,7.648000,20.427682

0.427059,1.498219,6.194179,19.344706,0.047353,-0.254992,0.043166,7.644000,20.427682

0.800682,2.544842,7.875483,19.350588,-0.220975,-0.172388,0.136161,7.640000,20.427682

-0.423173,2.049073,11.276411,19.344706,-0.274534,-0.096447,0.177196,7.648000,20.427682

2.982545,3.409444,10.222602,19.347647,0.460636,0.021863,0.414081,7.652000,20.240450

-0.974027,4.458463,5.552314,19.347647,0.148875,0.001345,0.469506,7.652000,20.240450

-2.518815,-2.887062,9.077783,19.341763,-0.208451,-0.298159,0.512672,7.640000,20.240450

-1.563202,0.470755,16.332296,19.338821,-0.057633,0.073024,0.642173,7.644000,20.240450

3.686681,4.920702,9.341235,19.338821,0.370838,-0.039957,0.641107,7.648000,20.240450

-4.396510,0.655172,6.486372,19.329998,0.141414,0.114325,0.491622,7.652000,20.240450

-4.121083,-0.719570,9.219090,19.318233,-0.116788,0.097272,0.536921,7.648000,20.240450

1.332377,0.897069,11.388977,19.318233,-0.463722,-0.031963,0.793258,7.644000,20.240450

4.857845,10.084364,10.069321,19.312351,0.410008,0.458062,0.525996,7.652000,20.240450

-1.702113,-3.725319,2.896237,19.303528,0.020973,-0.184646,0.321352,7.640000,20.240450

-2.375113,-0.757890,15.393450,19.309410,-0.660904,-0.046618,0.563567,7.640000,20.240450

-2.173932,3.711217,13.319363,19.285881,-0.432813,0.701609,0.536121,7.644000,20.240450

1.334772,6.142161,7.006091,19.312351,0.465166,0.322166,0.211303,7.644000,20.240450

-1.800309,-0.314811,11.681170,19.291763,-0.016332,-0.169457,0.149218,7.644000,20.240450

2.024537,8.894039,3.957231,19.294704,0.114235,0.125250,0.223028,7.648000,20.240450

-1.905690,-4.295334,10.881232,19.285881,-0.185002,-0.153736,0.030375,7.644000,20.240450

-2.128427,1.004844,16.880756,19.288822,0.139815,0.093808,-0.132433,7.656000,20.240450

-0.123795,9.471239,5.075705,19.277058,0.876318,0.286726,-0.295242,7.668000,20.240450

-3.570228,-3.054714,-0.279559,19.271175,-0.502359,-0.336263,-0.308298,7.648000,20.240450

-1.333280,4.870406,14.155224,19.277058,-0.707802,0.348812,-0.050096,7.632000,20.240450

4.541703,1.649105,13.003220,19.262352,0.663681,0.042647,-0.310164,7.652000,20.240450

-3.680399,-3.818725,11.312336,19.277058,-0.444004,-0.425261,-0.457784,7.640000,20.240450

-0.811166,1.349727,7.233617,19.256470,-0.102932,0.155094,-0.063153,7.640000,20.240450

-0.734525,-2.345788,11.120734,19.265293,-0.091474,0.276068,-0.050363,7.648000,20.240450

0.767152,8.513231,11.856006,19.268234,-0.188999,0.155360,-0.152418,7.640000,20.240450

1.629359,3.349569,13.803157,19.271175,0.119564,-0.088453,-0.154550,7.640000,20.240450

-1.967960,-0.556708,7.497069,19.271175,0.616783,-0.272845,-0.209974,7.648000,20.240450

-1.953590,3.969878,9.556787,19.282940,-0.371526,-0.043421,-0.130834,7.640000,20.240450

-0.557294,1.807176,7.899433,19.265293,-0.096537,-0.113234,-0.032510,7.640000,20.240450

-2.207462,0.173773,11.391372,19.288822,-0.269205,-0.009047,0.012789,7.640000,20.240450

1.217416,7.001974,11.630874,19.294704,-0.055235,-0.036493,0.011190,7.632000,20.240450

1.591039,3.804622,12.311059,19.291763,0.091319,0.075422,0.086066,7.644000,20.240450

0.283358,4.216566,6.680368,19.291763,0.071068,-0.032229,0.163074,7.636000,20.240450

1.270106,-0.139975,10.557905,19.297646,0.226682,-0.201966,0.027977,7.640000,20.240450

1.313216,2.643038,7.312653,19.285881,-0.192463,-0.206496,-0.173202,7.652000,20.240450

1.459313,5.366175,11.867981,19.288822,-0.319832,0.105798,-0.018121,7.652000,20.240450

3.231627,5.828414,6.275609,19.282940,0.694590,0.063164,-0.177998,7.656000,20.240450

-1.141679,-2.285912,3.732099,19.274117,-0.414693,-0.182514,-0.120709,7.648000,20.240450

-2.406249,-0.705199,8.205996,19.268234,0.062275,0.229970,-0.144158,7.648000,20.240450

-2.372719,-4.714462,8.862231,19.262352,-0.341682,0.035452,-0.120442,7.640000,20.240450

-2.166747,1.821546,14.073793,19.262352,-0.300381,0.412763,0.063950,7.644000,20.240450

-0.698600,3.186707,14.334850,19.265293,0.214158,0.358671,0.100988,7.644000,20.240450

0.127682,2.798714,6.522296,19.238823,-0.073088,0.194797,0.151083,7.640000,20.240450

-0.044760,4.377032,7.851532,19.250587,-0.043777,0.127115,0.117509,7.648000,20.240450

0.031881,6.283468,6.282794,19.232941,0.327139,0.096472,0.119640,7.644000,20.240450

2.058068,3.931558,8.299401,19.238823,0.477423,0.284062,0.049827,7.640000,20.240450

-2.708021,-1.109958,5.240961,19.238823,-0.081348,0.071158,0.026645,7.636000,20.240450

-5.174891,-0.458512,11.832055,19.244705,-0.286525,0.181207,0.098590,7.640000,20.240450

1.526373,6.357713,8.859837,19.235882,0.279975,0.392246,-0.042369,7.648000,20.240450

-2.911598,-0.765075,3.765629,19.232941,0.102777,0.086080,-0.081272,7.644000,20.240450

-2.523605,4.175850,11.611713,19.227058,-0.200990,0.192932,-0.162277,7.640000,20.240450

-1.821864,1.550909,6.266029,19.224117,0.201901,0.080218,-0.321355,7.640000,20.240450

-3.577413,-1.869179,12.967295,19.221176,-0.730185,0.018132,-0.162011,7.648000,10.077230

1.734740,10.287940,8.035949,19.206469,0.666878,0.555321,-0.448991,7.644000,10.077230

-6.604718,-6.199374,9.398716,19.215292,-0.460258,-0.358646,-0.473239,7.648000,10.077230

2.287989,7.361227,11.623689,19.197645,-0.418423,-0.029032,-0.294709,7.644000,10.077230

6.462509,3.859708,6.067243,19.215292,0.575215,-0.366373,-0.519337,7.636000,10.077230

-4.303104,-9.188358,8.859837,19.194704,0.098247,-0.079393,-0.526531,7.640000,10.077230

-5.821547,0.624036,13.319363,19.206469,-0.536200,0.454331,-0.348268,7.640000,10.077230

2.041302,8.268939,6.915080,19.218235,0.468897,-0.253393,-0.445260,7.640000,10.077230

1.035394,-2.266752,7.267148,19.188822,-0.039247,-0.632569,-0.492158,7.636000,10.077230

-1.443451,2.381981,13.173266,19.221176,-0.353407,-0.229411,-0.390102,7.628000,10.077230

2.235299,8.906014,9.896879,19.224117,0.775861,-0.261120,-0.364256,7.636000,10.077230

-0.023204,-7.437599,11.214140,19.203527,-0.178074,-0.570217,-0.127370,7.640000,10.077230

-1.941615,13.063768,11.240485,19.212351,0.319678,0.009073,0.131631,7.632000,10.077230

2.335890,-1.706318,4.481740,19.203527,0.371638,-0.848937,0.173199,7.640000,10.077230

-5.222792,4.259676,8.821516,19.200586,-0.341949,-0.196637,0.530526,7.636000,10.077230

2.345470,3.117252,8.143725,19.212351,0.376434,-0.281372,0.525463,7.636000,10.077230

0.671351,-4.544415,11.824870,19.194704,-0.060031,-0.468695,0.547846,7.640000,10.077230

-1.436266,8.783868,8.814330,19.182940,-0.176476,-0.220885,0.592611,7.632000,10.077230

4.747674,0.087552,8.455077,19.197645,0.679402,-0.399414,0.715184,7.644000,10.077230

-7.028636,0.861143,8.486213,19.185881,-0.268938,-0.326137,0.613395,7.640000,10.077230

-1.074618,2.001173,9.753179,19.171175,0.095849,0.156160,0.758084,7.640000,10.077230

1.823356,0.434830,13.472644,19.174116,-0.531670,-0.161730,0.624320,7.636000,10.077230

