ax,ay,az,gx,gy,gz,temp,volt,vel

1.320402,2.082603,9.386741,16.885881,-0.003808,0.015734,-0.032776,3.776000,0.000000

1.409017,1.649105,9.226274,16.903528,-0.000610,0.022929,-0.061288,3.600000,0.000000

1.579064,1.737720,9.489726,16.888823,0.005252,0.031722,-0.106586,3.508000,0.000000

1.327587,2.080208,9.544811,16.891764,0.001255,0.050374,-0.202779,3.412000,0.000000

0.422269,2.482572,9.410690,16.894705,-0.007805,0.046111,-0.318424,3.328000,0.000000

0.625846,2.374796,9.348420,16.921175,-0.027523,0.015468,-0.420213,3.268000,0.000000

0.872533,2.073023,9.312495,16.938822,-0.028855,0.013869,-0.522534,3.220000,0.000000

0.987494,1.711375,9.417875,16.909410,-0.036050,-0.000787,-0.622191,3.172000,0.000000

1.143170,1.605994,9.427456,16.912352,-0.035517,0.010938,-0.697867,3.136000,0.000000

1.205441,1.644315,9.449011,16.909410,-0.028855,0.023994,-0.755955,3.092000,0.000000

0.915643,1.819151,9.336445,16.927057,-0.011269,0.023195,-0.820706,3.052000,0.000000

0.355209,2.602323,9.475356,16.944704,-0.022727,-0.005316,-0.861208,3.016000,0.000000

0.585131,2.647828,9.556787,16.927057,-0.037915,-0.013310,-0.853481,2.964000,0.000000

0.312098,2.080208,9.484936,16.929998,-0.046708,0.006141,-0.872133,2.932000,0.000000

1.270106,1.725745,8.941267,16.944704,-0.040047,-0.010646,-0.885456,2.896000,0.000000

1.955082,1.725745,9.427456,16.947645,-0.028322,0.017066,-0.856945,2.856000,0.000000

0.563575,2.274205,10.282477,16.950586,-0.053103,0.026393,-0.677882,2.820000,0.000000

-0.075895,2.963970,9.568762,16.959410,0.070002,0.009073,-0.529995,2.784000,0.000000

-0.753685,1.840706,8.670630,16.944704,-0.079750,-0.002918,-0.337343,2.744000,0.000000

-1.476981,1.948482,10.486054,16.947645,-0.001410,-0.045819,-0.148154,2.708000,0.000000

0.427059,1.194051,9.566367,16.944704,-0.000077,-0.036493,-0.092997,2.672000,0.000000

-0.550109,1.275482,9.389135,16.971176,0.013779,-0.046085,-0.124972,2.628000,0.000000

-0.291447,2.444251,9.264594,16.947645,-0.003808,-0.047151,-0.120176,2.596000,0.000000

-0.777636,2.815479,9.614267,16.971176,-0.003275,-0.057277,-0.063686,2.556000,0.000000

-0.916547,2.757999,9.686118,16.971176,0.002854,-0.130554,-0.014657,2.520000,0.000000

-0.284262,2.671778,9.161609,16.974117,-0.000877,-0.100710,-0.014124,2.484000,0.000000

-0.504603,2.046678,9.092153,16.971176,-0.002476,-0.081258,0.000798,2.452000,0.000000

0.561180,1.941297,9.278965,16.965292,-0.012068,-0.189442,0.034905,2.416000,0.000000

0.860558,1.898187,8.900552,16.982941,-0.012068,-0.173987,0.047695,2.384000,0.000000

0.709672,2.075418,9.796288,16.971176,0.006318,-0.159332,0.036238,2.352000,0.000000

0.537230,2.154454,9.542417,16.977058,-0.005407,-0.146275,0.052492,2.316000,0.000000

0.764757,2.439461,8.869416,16.991764,-0.012868,-0.174254,-0.009061,2.280000,0.000000

1.744320,2.714888,9.005932,16.994705,-0.028056,-0.140946,0.011989,2.244000,0.000000

1.301241,2.458621,9.374765,16.965292,-0.027790,-0.110569,0.123371,2.216000,0.000000

1.521583,1.857471,9.171188,16.985882,-0.020062,-0.100976,0.126302,2.156000,0.000000

0.793497,1.304222,9.518467,16.988823,-0.011269,-0.085522,0.111380,2.124000,0.000000

0.465380,1.730535,9.417875,16.994705,0.017243,-0.122826,0.082069,2.092000,0.000000

1.444943,1.924532,9.540022,16.988823,0.009782,-0.108970,0.058620,2.040000,0.000000

1.296451,1.828731,9.511281,17.009411,0.026302,-0.086854,0.115910,2.004000,0.000000

0.731227,2.707703,9.077783,16.980000,0.003920,-0.142012,0.155613,1.976000,0.000000

1.370697,1.852681,9.494516,16.991764,0.029500,-0.102042,0.179594,1.948000,0.000000

1.897601,1.685030,9.477751,17.009411,0.021506,-0.092983,0.207573,1.912000,0.000000

2.424506,2.288575,8.924501,17.003529,0.005252,-0.066603,0.246210,1.880000,0.000000

1.579064,2.199959,9.259805,17.021175,0.023371,-0.063405,0.243545,1.852000,0.000000

1.710790,1.744905,9.362790,17.006470,-0.006473,-0.051148,0.236084,1.824000,0.000000

1.888021,2.113739,9.410690,17.012352,0.016177,-0.016774,0.219031,1.796000,0.000000

1.538348,2.235884,9.211904,17.009411,0.017243,-0.003984,0.200378,1.772000,0.000000

1.294056,2.116133,9.180769,17.015293,-0.005673,-0.019439,0.168936,1.748000,0.000000

1.593434,2.346056,9.202324,17.029999,0.006851,0.000013,0.089530,1.704000,0.000000

1.808985,2.449041,9.135263,17.032940,-0.011535,0.018665,0.041567,1.676000,0.000000

2.252064,1.821546,9.183164,17.035881,-0.024059,-0.006649,-0.005064,1.648000,0.000000

1.995797,1.792806,9.453801,17.038822,0.001521,0.081017,-0.026914,1.612000,0.000000

1.765875,2.135294,9.252620,17.018234,-0.034984,0.041847,-0.052228,1.588000,0.000000

1.684445,1.929322,9.449011,17.041763,-0.000877,0.069027,-0.096994,1.560000,0.000000

0.405504,5.421261,9.992681,17.038822,0.213625,0.130313,-0.140694,1.528000,0.000000

0.908458,0.224068,7.434799,17.056469,-0.307309,0.022929,-0.176932,1.500000,0.000000

2.558627,1.043165,9.264594,17.035881,-0.008871,0.093275,-0.163876,1.476000,0.000000

0.805472,0.887489,10.715977,17.044704,0.051350,0.112993,-0.056758,1.452000,0.000000

0.640216,2.070628,8.912526,17.050587,0.010581,0.027991,0.073009,1.424000,0.000000

0.419874,3.134017,9.197534,17.035881,-0.001410,0.029324,0.108182,1.400000,0.000000

0.750387,3.203472,9.381950,17.062351,0.005252,0.038117,0.086865,1.376000,0.000000

1.406622,2.415511,9.310100,17.047646,-0.012335,0.002944,0.063950,1.344000,0.000000

2.589762,1.670660,9.408296,17.059410,-0.017664,0.030656,0.048228,1.320000,0.000000

2.139498,1.524564,9.463381,17.053528,-0.001143,0.099670,0.065282,1.296000,0.000000

1.543139,1.268297,9.319680,17.065292,0.000988,0.083682,0.050094,1.272000,0.000000

0.623451,1.668265,9.508886,17.059410,0.006851,0.097272,-0.016788,1.256000,0.000000

0.324073,2.096973,9.530441,17.065292,0.008183,0.080751,-0.095928,1.232000,0.000000

-0.171696,2.259835,9.355605,17.062351,0.007916,0.061299,-0.133765,1.216000,0.000000

0.154027,2.393956,9.343630,17.071175,-0.013933,0.037850,-0.147089,1.196000,0.000000

0.946778,2.161639,9.506492,17.074116,0.003387,0.030922,-0.075677,1.180000,0.000000

1.205441,1.862262,9.547207,17.071175,-0.006473,0.045045,0.053824,1.168000,0.000000

0.338444,1.531749,9.561577,17.071175,-0.004341,0.039449,0.145221,1.152000,0.000000

-0.114215,1.732930,9.314890,17.068233,0.017509,0.013069,0.153481,1.132000,0.000000

0.039066,2.391561,9.353210,17.065292,0.015377,-0.018906,0.144155,1.120000,0.000000

0.714462,2.379586,9.324470,17.065292,0.015644,-0.006649,0.107916,1.108000,0.000000

0.992284,2.470596,9.029882,17.068233,0.009782,-0.021837,0.123371,1.100000,0.000000

1.512003,2.358031,9.508886,17.088821,-0.007005,-0.004784,0.151616,1.088000,0.000000

1.430573,2.348450,9.540022,17.065292,0.014045,0.021596,0.167870,1.076000,0.000000

1.296451,2.872960,9.152028,17.094706,0.046820,0.050641,0.191852,1.068000,0.000000

1.665284,1.323382,8.696975,17.085880,-0.029655,0.074356,0.139625,1.064000,0.000000

2.953805,2.827454,8.704160,17.085880,-0.003541,-0.046618,0.081270,1.052000,0.000000

2.992125,4.214171,9.350815,17.097647,-0.111459,-0.214756,0.002930,1.048000,0.000000

3.468734,1.325777,9.063413,17.109411,0.059344,0.015201,-0.051695,1.040000,0.000000

0.110917,1.893397,9.264594,17.121176,0.088122,0.044778,-0.084470,1.032000,0.000000

0.829423,2.058653,9.460986,17.103529,0.032431,-0.010113,-0.048498,1.024000,0.000000

0.762362,1.835916,9.480146,17.100588,-0.035783,0.001345,-0.045566,1.024000,0.000000

0.570760,2.504127,9.434641,17.103529,-0.019529,0.025860,-0.039704,1.016000,0.000000

-0.154930,2.420301,9.714858,17.112352,-0.003808,-0.002918,-0.071680,1.008000,0.000000

0.975519,1.000055,8.814330,17.091763,-0.029388,-0.024768,-0.072479,1.004000,0.000000

0.419874,1.661080,9.633428,17.121176,-0.013401,0.006141,-0.035441,1.000000,0.000000

-0.023204,1.811966,9.599897,17.124117,-0.003541,-0.029298,-0.008262,0.996000,0.000000

1.852096,3.718402,8.579618,17.112352,0.025769,-0.037292,0.018118,0.992000,0.000000

-0.308212,3.244188,10.545930,17.094706,0.089454,-0.132419,0.131631,0.988000,0.000000

2.446061,-0.884826,8.067084,17.097647,0.005252,-0.191307,0.098057,0.984000,0.000000

0.034276,1.694610,9.916039,17.106470,-0.006739,-0.030097,0.139891,0.984000,0.000000

1.988612,2.815479,9.640613,17.100588,0.007384,-0.074064,0.187055,0.976000,0.000000

2.901114,1.311407,9.223879,17.106470,0.017243,0.027725,0.205441,0.972000,0.000000

0.393529,1.776041,9.458591,17.115294,0.001788,0.066895,0.254737,0.968000,0.000000

0.496515,1.970037,9.369975,17.121176,0.003120,-0.004784,0.359190,0.964000,0.000000

0.376764,1.692215,9.319680,17.124117,0.022838,0.027192,0.373579,0.960000,0.000000

1.157540,2.595137,8.754455,17.135881,-0.020595,0.002944,0.473236,0.960000,0.000000

0.700091,3.713611,9.559182,17.118235,0.082259,0.016267,0.680277,0.956000,0.000000

1.126405,3.033426,9.592712,17.129999,0.065206,0.023195,0.768210,0.956000,0.000000

1.052159,3.227422,8.591594,17.132940,0.016710,0.017599,0.884921,0.952000,0.000000

1.399437,3.977064,8.306586,17.129999,0.047353,0.035719,1.002164,0.948000,0.000000

1.607804,3.222633,9.113708,17.129999,0.062808,0.056769,1.042133,0.948000,0.000000

0.285753,4.642879,9.549602,17.121176,0.073999,0.037850,0.942210,0.948000,0.000000

0.987494,4.779396,8.282637,17.144705,0.112636,0.075688,0.850280,1.036000,0.000000

0.855768,4.159085,8.752060,17.135881,0.088921,0.041581,0.730905,1.348000,0.000000

0.398319,4.044125,8.711345,17.132940,0.056146,0.024527,0.679744,1.684000,0.000000

1.090480,4.623719,8.878996,17.141764,0.032165,0.015201,0.823368,3.352000,0.000000

0.568365,4.269256,9.008327,17.135881,0.081993,0.072224,0.945141,4.800000,0.000000

-0.277076,4.441698,9.700488,17.132940,0.136351,0.122319,0.927821,5.172000,0.000000

0.946778,4.412958,8.821516,17.147646,0.089720,0.035985,0.837757,5.724000,0.000000

1.828146,4.609349,7.204877,17.129999,0.037760,0.081017,0.640042,5.916000,0.000000

1.734740,2.005963,10.984219,17.144705,-0.023526,0.071958,0.570495,6.416000,0.000000

2.247274,3.483690,10.416599,17.141764,0.169659,0.062898,0.578222,6.976000,0.000000

1.919157,3.773487,5.957072,17.132940,0.185647,0.143370,0.546513,6.984000,0.000000

0.589921,3.440579,7.271938,17.115294,0.113436,0.273670,0.547313,7.064000,0.000000

-0.835116,2.868170,11.465617,17.162352,0.007117,0.276068,0.510274,7.152000,0.000000

2.335890,4.520733,6.021738,17.159410,0.123028,0.164687,0.387702,7.208000,0.000000

1.880836,4.130345,8.855046,17.144705,0.206964,0.270739,0.154014,7.252000,0.000000

2.134708,3.854918,9.508886,17.153528,0.116367,0.262745,-0.164409,7.272000,0.000000

0.525255,4.233331,8.627519,17.138823,0.096915,0.316570,-0.701864,7.276000,0.000000

0.846188,1.919742,8.502978,17.138823,-0.053103,0.309909,-1.321389,7.292000,0.000000

6.079305,0.446805,10.198652,17.147646,-0.146898,0.270206,-1.746130,7.276000,0.000000

6.936722,1.960457,10.339958,17.138823,0.040958,0.443939,-2.011527,7.284000,0.000000

5.298529,4.156691,8.946056,17.156469,-0.036050,0.464190,-1.906007,7.260000,0.000000

1.983822,1.447923,7.154582,17.168234,-0.012868,0.468187,-1.623024,7.232000,0.000000

0.812657,4.899147,7.659931,17.156469,-0.183404,0.193198,-1.492724,7.188000,0.000000

-1.400341,2.607113,7.808422,17.153528,-0.222307,0.273936,-1.523101,7.188000,0.000000

-2.420619,5.629627,8.558064,17.144705,-0.251884,0.053572,-1.802087,7.212000,0.000000

0.166002,3.510035,7.077941,17.141764,-0.350742,-0.034627,-1.913468,7.240000,0.000000

3.265157,4.175850,11.726674,17.159410,-0.448534,-0.127090,-1.780237,7.248000,0.000000

0.194742,-1.155463,12.212864,17.147646,-0.258280,0.158292,-1.712556,7.272000,0.000000

-0.808771,2.223909,11.987732,17.156469,-0.112525,0.089811,-1.383208,7.304000,0.000000

-0.427963,4.939862,5.703200,17.135881,-0.020329,0.002677,-0.958733,7.312000,0.000000

-0.770451,-0.542338,9.887300,17.141764,-0.120252,-0.037558,-0.445260,7.300000,0.000000

-2.085316,0.652777,7.461144,17.141764,-0.229768,-0.055411,0.090329,7.292000,0.000000

4.556073,8.666512,12.667917,17.159410,0.348455,-0.340526,0.316556,7.300000,0.000000

2.244879,-8.601579,12.631992,17.147646,-0.010203,-0.378364,0.244611,7.272000,0.000000

-2.734366,0.901859,8.943662,17.162352,0.125426,-0.219019,0.288844,7.264000,0.000000

-0.332162,0.408485,13.690591,17.153528,0.028168,-0.472692,0.818038,7.268000,0.000000

1.677259,-0.616584,11.956596,17.156469,0.347923,-0.102575,0.986976,7.272000,0.000000

-0.351322,2.420301,4.601491,17.159410,-0.116522,-0.190508,0.904639,7.268000,0.000000

4.323756,3.651341,6.486372,17.127058,-0.121584,-0.229678,1.195616,7.244000,0.000000

3.868702,-0.745915,10.658496,17.159410,0.267184,0.171082,1.334709,7.248000,0.000000

-8.051311,8.173139,14.212705,17.153528,0.163797,-0.108171,1.507377,7.188000,0.000000

2.338285,-4.565971,6.419311,17.165293,-0.399238,0.371728,1.384538,7.208000,0.000000

1.751505,0.988079,8.062294,17.127058,0.153405,-0.000520,1.794890,7.236000,0.000000

-1.591942,0.806058,8.179650,17.153528,-0.026724,0.220377,2.041900,7.196000,0.000000

-1.958380,2.755604,7.267148,17.159410,0.009515,0.256616,1.964360,7.216000,0.000000

0.697697,4.180641,6.570197,17.159410,0.023638,0.397042,1.976617,7.228000,0.000000

1.612594,5.191339,8.433522,17.138823,-0.127979,0.534537,2.077074,7.252000,0.000000

-2.612221,1.402418,18.839882,17.141764,0.128357,0.734383,1.753855,7.288000,0.000000

2.060463,4.281231,11.472802,17.156469,0.256792,0.371461,1.461012,7.312000,0.000000

0.276173,-1.481186,7.094706,17.159410,0.274379,0.598754,0.831628,7.336000,0.000000

0.324073,2.070628,8.548483,17.156469,0.236008,0.759431,-0.082338,7.324000,0.000000

3.916603,8.115658,8.411967,17.153528,0.160866,0.827912,-0.933153,7.328000,0.000000

2.220929,2.238280,7.990444,17.150587,0.086523,0.735449,-1.224663,7.324000,0.000000

0.314493,5.694293,5.262516,17.156469,0.309019,0.723991,-1.679514,7.356000,0.000000

-1.692533,6.719361,3.454277,17.159410,0.132354,0.600619,-2.130102,7.376000,0.000000

-2.056576,12.057859,7.604846,17.165293,-0.412295,0.517483,-1.795159,7.360000,0.000000

-1.043483,3.797437,8.814330,17.171175,-0.012335,0.095140,-1.442896,7.360000,0.000000

-3.769015,-1.337485,11.532678,17.168234,-0.308108,0.039449,-0.919297,7.368000,0.000000

-2.887648,1.687425,18.938078,17.174116,-0.076552,0.002144,-0.568632,7.376000,0.000000

2.793339,4.530313,7.770102,17.168234,0.462768,-0.139081,-0.304834,7.400000,0.000000

-2.818192,5.615257,2.692660,17.156469,-0.162886,0.010405,-0.335744,7.396000,0.000000

1.945502,2.494547,16.789745,17.156469,-0.212448,-0.014909,-0.334945,7.408000,0.000000

-2.394274,3.035821,9.959150,17.168234,0.018308,0.529474,-0.103655,7.412000,0.000000

-1.393156,3.189102,11.453642,17.200586,0.138483,0.065829,0.130032,7.420000,0.000000

-0.387247,2.887330,5.808581,17.185881,0.253062,0.146301,0.032507,7.416000,0.000000

-2.442174,2.695728,6.761798,17.185881,-0.190865,0.111927,-0.140694,7.412000,0.000000

-2.252968,0.959339,13.724121,17.200586,0.043089,0.112993,-0.508678,7.408000,0.000000

-3.345096,0.822823,10.428574,17.174116,0.135818,0.155627,-0.831631,7.412000,0.000000

-5.158126,-2.108681,10.483660,17.200586,-0.125848,-0.053813,-1.033343,7.408000,0.000000

-1.218319,2.068233,9.566367,17.197645,0.102244,-0.100177,-1.152185,7.408000,0.000000

1.243761,1.605994,8.955637,17.188822,0.072667,-0.188110,-1.223863,7.400000,0.000000

1.971847,0.571346,10.313613,17.203527,-0.046175,-0.110303,-1.350700,7.408000,0.000000

-1.637448,1.234766,10.306428,17.185881,-0.012068,0.080484,-1.274225,7.408000,0.000000

-1.026718,0.343819,9.152028,17.191763,0.000189,-0.139347,-1.340574,7.396000,0.000000

-2.446964,2.542447,12.457155,17.200586,0.149408,-0.016508,-1.329383,7.396000,0.000000

-3.831285,6.922938,12.524216,17.185881,0.076397,-0.022637,-1.366954,7.404000,0.000000

5.411095,-2.537390,6.323510,17.197645,-0.242025,-0.703981,-1.156182,7.400000,0.000000

-1.409921,4.029754,7.760522,17.185881,0.739089,0.139906,-0.486029,7.412000,0.000000

-2.042206,3.392679,13.654665,17.209410,-0.456528,-0.706379,-0.114580,7.412000,0.000000

2.546652,1.950877,10.428574,17.191763,0.201901,0.009073,-0.073012,7.408000,0.000000

-0.027994,6.070311,4.474555,17.191763,0.484351,-0.083923,-0.134831,7.420000,0.000000

-2.686466,6.578055,8.831096,17.221176,-0.617737,-0.378097,-0.265931,7.424000,0.000000

-8.034545,1.162916,11.259645,17.218235,0.049751,-0.037825,-1.118344,7.440000,0.000000

-0.645909,4.051310,10.533955,17.218235,0.168593,-0.209693,-1.652868,7.448000,0.000000

-3.701954,1.421578,10.818962,17.241764,0.062275,-0.125491,-1.765315,7.456000,0.000000

0.439034,3.354359,11.333891,17.241764,0.322609,-0.396483,-1.710957,7.464000,0.000000

-1.223109,0.925809,8.388017,17.232941,0.144345,-0.511862,-1.534026,7.456000,0.000000

-1.175209,1.155731,13.137341,17.235882,0.390557,-0.519855,-1.045067,7.456000,0.000000

1.052159,-0.824950,10.488449,17.247646,0.379099,-0.511862,-0.656032,7.452000,0.000000

0.458195,-0.935121,10.945898,17.256470,-0.022727,-0.604058,-0.285916,7.444000,0.000000

2.850819,-3.785195,10.294453,17.253529,0.124361,-0.631770,0.124970,7.448000,0.000000

-0.727340,4.183036,9.978311,17.262352,0.469696,-0.292297,0.464176,7.444000,0.000000

4.591998,1.900582,11.137500,17.265293,0.176854,-0.289099,0.657362,7.436000,0.000000

1.717975,2.386771,10.979428,17.265293,0.067604,-0.325338,0.763147,7.420000,0.000000

2.747833,3.447764,9.482541,17.265293,0.296229,-0.180116,0.655496,7.428000,0.000000

1.423388,-0.242961,6.426496,17.279999,0.307953,-0.168924,0.442593,7.420000,0.000000

-1.031508,2.010753,10.826147,17.282940,-0.007805,-0.142278,0.233420,7.416000,0.000000

-0.959657,4.652460,10.701606,17.294704,0.125959,-0.004517,0.139092,7.424000,0.000000

-2.437384,2.920860,8.740085,17.288822,0.111570,-0.067136,0.169735,7.412000,0.000000

-3.182235,3.409444,6.045688,17.303528,0.280774,-0.033295,0.267261,7.424000,0.000000

-3.040929,3.646551,5.681645,17.300587,0.057478,-0.166260,0.521199,7.432000,0.000000

-2.585875,7.298956,12.047607,17.306469,-0.165551,-0.068202,1.112480,7.440000,0.000000

1.540743,-0.044174,11.990127,17.303528,0.095050,-0.081258,1.517236,7.448000,0.000000

-3.450477,6.067916,11.233300,17.318233,0.035362,0.082616,1.850581,7.456000,0.000000

-3.963012,3.874078,2.783671,17.332939,0.144612,0.285394,1.818871,7.456000,0.000000

-2.794242,7.940822,7.353368,17.321175,-0.256681,0.373860,1.460213,7.460000,0.000000

-2.169142,8.058177,8.261081,17.318233,-0.015799,0.471651,1.019484,7.480000,0.000000

-2.193092,-0.913566,13.489408,17.318233,-0.055502,0.134843,0.359190,7.480000,0.000000

-8.535104,4.051310,5.511598,17.332939,-0.179940,0.518016,-0.231024,7.480000,0.000000

-6.379586,6.115817,4.175178,17.332939,0.223218,-0.195571,-0.756755,7.480000,0.000000

-4.097133,0.418065,13.281042,17.353529,-0.546059,-0.460967,-0.736504,7.480000,0.000000

-4.851564,-1.371015,17.800444,17.335880,-0.346745,-0.166260,-0.947275,7.476000,0.000000

-5.938902,-4.872533,14.713264,17.335880,0.073466,-0.451641,-1.137796,7.476000,0.000000

-1.433871,-4.242643,8.593988,17.329998,-0.082947,-0.821491,-0.819107,7.464000,0.000000

-2.775082,-0.913566,7.178532,17.329998,0.052949,-0.588603,-0.565701,7.452000,0.000000

-0.219596,-1.495556,15.958674,17.335880,0.206165,-0.779923,-0.688540,7.444000,0.000000

-3.682794,-7.504660,12.248789,17.332939,0.282906,-0.560891,-0.548381,7.452000,0.000000

3.111876,5.952955,8.251501,17.335880,0.355117,-0.796977,-0.085802,7.452000,0.000000

1.648519,6.628351,2.378913,17.347647,0.382030,-0.519589,0.384504,7.448000,17.003208

-1.740433,2.578372,6.517507,17.344706,-0.496497,-0.714906,0.591012,7.428000,17.003208

2.381395,-2.417639,14.430652,17.359411,-0.131710,-0.471359,0.953135,7.448000,17.003208

0.882113,2.827454,13.108601,17.350588,0.537377,-0.262453,0.998167,7.456000,17.003208

0.745597,7.018739,7.398874,17.341763,0.502204,-0.343724,0.873196,7.460000,17.003208

-0.150140,0.152218,3.468647,17.341763,-0.105330,-0.559558,0.680011,7.468000,17.003208

-1.390761,4.829691,10.541140,17.365294,-0.032319,-0.284836,0.753288,7.476000,17.003208

0.601896,0.834798,15.374290,17.350588,-0.023793,-0.450575,0.656296,7.488000,17.003208

1.914366,1.970037,7.073151,17.353529,0.716707,-0.156134,0.662691,7.496000,17.003208

0.237853,12.026725,2.362148,17.356470,0.756410,-0.051947,0.792458,7.512000,17.003208

3.257972,8.932360,6.646838,17.350588,-0.574571,-0.197436,1.031475,7.500000,17.003208

3.717816,-2.506254,14.895286,17.371176,-0.146099,-0.001320,1.378143,7.508000,17.003208

2.776573,4.482413,5.303232,17.365294,0.620247,0.106598,1.512173,7.520000,17.003208

3.430414,1.148546,17.898640,17.362352,0.281840,0.353609,1.749591,7.500000,17.003208

6.081700,-10.886427,12.009287,17.377058,-0.712065,0.097272,1.890816,7.500000,17.003208

3.581300,-1.335090,5.607399,17.385881,0.469429,0.607547,1.705625,7.500000,17.003208

-3.943851,12.050674,7.964098,17.385881,1.264553,1.236665,1.468207,7.496000,17.003208

-0.916547,4.597374,2.781276,17.385881,-0.642518,0.501229,0.856676,7.488000,17.003208

-1.706903,-5.557509,9.307705,17.379999,0.116367,0.697345,0.346933,7.488000,17.003208

-2.557135,4.444093,19.869741,17.394705,0.497408,0.865483,0.393297,7.496000,17.003208

2.949015,1.519774,11.005774,17.394705,-0.001410,0.455664,0.380507,7.504000,17.003208

-4.540211,0.226463,8.570039,17.397646,0.303423,0.724258,0.422875,7.500000,17.003208

-3.455267,2.829849,9.068203,17.379999,0.457705,0.252619,0.434332,7.504000,17.003208

-0.988397,3.507640,6.289979,17.394705,0.211227,0.468987,0.510274,7.504000,17.003208

-0.672255,1.115016,8.467052,17.397646,0.170991,0.452200,0.297371,7.500000,17.003208

-2.312843,7.366016,5.219406,17.403528,0.571218,0.659507,0.148418,7.512000,17.003208

-4.865934,9.619730,4.654181,17.394705,0.501938,0.326962,0.046363,7.520000,19.108760

-3.577413,1.807176,9.638218,17.394705,-0.454129,0.017866,-0.037306,7.520000,19.108760

-0.468678,1.428763,11.539863,17.403528,-0.018197,0.110062,0.106584,7.516000,19.108760

0.137262,4.784185,6.819279,17.397646,0.459837,0.027192,0.243012,7.520000,19.108760

-5.732931,-0.880036,10.632151,17.409410,-0.073621,0.130579,0.247809,7.524000,19.108760

-2.739156,-0.168715,9.401111,17.391764,-0.119453,-0.190774,-0.085003,7.520000,19.108760

-0.159721,2.343660,9.604687,17.415293,-0.074420,-0.080459,0.072476,7.520000,19.108760

3.226837,-2.329023,8.792775,17.406469,-0.029122,-0.239803,0.467374,7.508000,19.108760

2.819684,0.300709,11.932646,17.394705,-0.246555,0.252619,0.523065,7.500000,19.108760

-1.354835,2.319710,10.057346,17.412352,0.118765,0.358938,0.569163,7.500000,19.108760

-2.854117,2.932835,11.338681,17.406469,-0.225505,0.123118,0.456449,7.492000,19.108760

-0.650700,1.244346,12.517031,17.406469,-0.448800,0.054904,0.270458,7.492000,19.108760

4.244720,0.006121,7.221642,17.397646,-0.218044,0.051973,0.228623,7.492000,19.108760

-1.685348,-0.829740,7.413244,17.415293,0.025503,0.187069,-0.097793,7.488000,19.108760

-0.633934,0.784503,12.663127,17.403528,-0.227636,-0.113234,-0.655765,7.488000,19.108760

4.012403,6.305023,10.687236,17.394705,0.169393,-0.054612,-0.860675,7.496000,19.108760

0.314493,7.234291,7.003695,17.388823,-0.045643,0.207054,-0.988311,7.500000,19.108760

-0.013624,5.330250,9.259805,17.394705,-0.230035,-0.184379,-1.163376,7.504000,19.108760

2.711908,5.873919,9.020303,17.379999,0.318612,-0.204630,-1.222265,7.516000,19.108760

1.653309,5.217684,6.297165,17.379999,0.125693,-0.107105,-1.067184,7.520000,19.108760

0.166002,1.244346,8.342512,17.403528,-0.272669,-0.114566,-0.723980,7.528000,19.108760

-0.119005,0.942574,8.052714,17.379999,0.108106,0.179342,-0.330148,7.536000,19.108760

-1.311725,2.283785,11.506332,17.379999,0.147010,-0.166526,0.231288,7.536000,19.108760

1.423388,1.510194,11.542258,17.379999,-0.195394,-0.121494,0.767411,7.540000,19.108760

2.781363,3.093302,11.927856,17.368235,-0.106129,-0.034894,1.001898,7.532000,19.108760

3.895048,-1.313534,10.227392,17.377058,-0.050705,-0.003718,1.181227,7.524000,19.108760

-0.760870,0.317474,12.964900,17.382940,0.068137,0.400506,1.449555,7.528000,19.863189

1.207836,-2.384108,9.765154,17.377058,-0.135440,0.290190,1.529493,7.524000,19.863189

3.090321,-1.509926,9.575947,17.362352,0.009515,0.401572,1.475668,7.520000,19.863189

4.002823,2.453831,9.355605,17.382940,0.282373,0.593425,1.488724,7.520000,19.863189

2.002982,1.201236,7.829977,17.365294,-0.064295,0.104999,1.240382,7.512000,19.863189

-1.776359,-3.737294,6.278005,17.362352,0.181117,0.883336,0.670685,7.520000,19.863189

-2.638566,4.307577,12.792459,17.365294,0.374036,1.015501,0.299502,7.516000,19.863189

0.060621,0.545001,10.179492,17.359411,-0.212981,0.817786,0.291509,7.508000,19.863189

-3.754645,6.041571,5.267306,17.365294,0.144878,1.232135,-0.228626,7.520000,19.863189

-3.943851,5.447606,8.352092,17.365294,-0.086678,0.820717,-0.636314,7.520000,19.863189

-4.580926,4.353082,9.044252,17.356470,-0.236963,0.659507,-0.681346,7.520000,19.863189

-4.861144,7.835441,6.409730,17.353529,0.145678,0.677360,-0.853214,7.528000,19.863189

-10.647511,8.278519,-1.184876,17.353529,0.150474,0.378123,-1.132467,7.540000,19.863189

-7.105277,-3.231945,14.492922,17.359411,-0.750969,-0.289099,-1.478069,7.540000,19.863189

-2.320028,-9.969134,20.207439,17.359411,0.081727,-0.223549,-1.024283,7.552000,19.863189

-3.299591,-1.531481,13.977993,17.353529,0.098247,-0.232076,-0.769278,7.544000,19.863189

0.321678,7.804305,0.534748,17.350588,0.589338,0.171881,-1.083438,7.548000,19.863189

-4.822824,-2.997233,1.588556,17.347647,-0.473581,-0.826287,-1.220932,7.528000,19.863189

7.379801,3.514825,15.041382,17.332939,-0.323563,-0.144143,-0.839891,7.520000,19.863189

4.187240,3.993829,15.985020,17.356470,0.440385,0.215314,-0.851083,7.528000,19.863189

-1.407526,5.002132,5.070915,17.327057,0.287702,-0.369837,-0.788997,7.536000,19.863189

0.003141,3.270533,4.453000,17.324116,0.103044,-0.515592,-0.836960,7.540000,19.863189

-1.812284,0.523446,8.756850,17.344706,0.154204,-0.273644,-0.815643,7.544000,19.863189

-3.414552,-0.238171,10.749507,17.341763,0.140881,-0.438584,-0.745297,7.544000,19.863189

-3.704349,0.051627,11.963781,17.335880,0.124893,-0.490012,-0.621392,7.544000,19.863189

-1.223109,1.081485,9.312495,17.315292,0.067071,-0.596330,-0.559839,7.544000,20.153613

2.716698,-0.192665,5.403822,17.332939,0.433724,-0.552630,-0.429272,7.556000,20.153613

-0.945287,11.806383,-1.323787,17.318233,1.317846,-0.227013,-0.210773,7.556000,20.153613

2.335890,15.173780,18.083055,17.329998,-0.401370,-0.566486,0.042100,7.552000,20.153613

10.258614,-4.218693,13.999548,17.335880,-0.367796,-0.993093,0.070878,7.560000,20.153613

4.965621,7.627073,5.343947,17.338821,0.489681,0.155627,0.891049,7.564000,20.153613

1.799406,9.301192,2.551354,17.341763,0.342060,0.252086,1.491656,7.564000,20.153613

-2.521210,-0.242961,9.551997,17.321175,-0.530338,0.098604,1.116477,7.556000,20.153613

-2.423014,-5.138381,23.112597,17.324116,-0.270803,0.142837,0.342936,7.556000,20.153613

2.201769,1.493428,12.490685,17.312351,-0.409630,0.248356,0.212369,7.560000,20.153613

6.314017,-7.672311,-0.293929,17.335880,-0.329958,0.117523,0.015453,7.552000,20.153613

0.462985,6.264307,12.157778,17.324116,0.674073,0.691749,-0.058890,7.548000,20.153613

2.616107,0.176168,9.848979,17.329998,-0.265474,0.103134,-0.178265,7.528000,20.153613

-2.030231,-0.683644,11.362632,17.318233,-0.435211,0.010938,-0.111116,7.536000,20.153613

1.301241,-2.077546,3.425536,17.315292,0.156869,0.420224,-0.147888,7.536000,20.153613

-1.544042,3.653736,7.937753,17.315292,0.216290,0.464990,-0.064219,7.536000,20.153613

-0.523764,0.168983,12.222444,17.324116,0.084658,0.255284,0.042100,7.536000,20.153613

-2.547555,7.497743,11.343472,17.321175,-0.182338,0.490037,0.217699,7.536000,20.153613

-2.691256,2.039493,9.355605,17.318233,-0.239094,0.200925,0.331212,7.536000,20.153613

-1.338070,2.250255,4.179967,17.315292,0.207497,0.213183,0.321885,7.548000,20.153613

-3.627709,5.028478,9.204719,17.309410,0.092385,0.247024,0.010391,7.556000,20.153613

-8.257281,7.385177,13.108601,17.318233,0.358581,0.363468,-0.154550,7.564000,20.153613

-11.239081,6.393639,8.198811,17.321175,0.371105,-0.051148,-0.293110,7.568000,20.153613

-8.508759,-2.408058,9.997471,17.306469,-0.747505,-0.943264,-0.658430,7.564000,20.153613

2.788548,1.658685,10.505215,17.306469,0.037760,-0.517990,-0.593147,7.564000,20.153613

2.141893,-2.010485,11.420112,17.315292,0.205632,-0.438318,-0.207043,7.560000,21.239478

-1.750014,-0.477673,10.890813,17.303528,0.002587,-0.425261,0.061818,7.560000,21.239478

0.048646,-1.083612,8.002419,17.327057,0.143279,-0.456970,0.103386,7.552000,21.239478

4.783600,2.116133,8.359277,17.303528,0.152872,-0.585672,0.151882,7.544000,21.239478

2.228114,2.753209,7.281518,17.303528,0.054814,0.016001,0.712253,7.548000,21.239478

-4.080368,1.993988,9.233459,17.303528,0.092119,0.031988,0.298970,7.548000,21.239478

-3.160680,1.950877,11.491962,17.312351,-0.179940,0.006141,-0.285916,7.548000,21.239478

-1.654213,3.689661,10.203442,17.327057,0.032697,0.003210,-0.550779,7.556000,21.239478

-1.527277,3.387889,4.424260,17.318233,-0.119453,0.046377,-0.700265,7.564000,21.239478

-4.008517,2.676568,9.731624,17.315292,-0.007272,0.024261,-0.883058,7.560000,21.239478

1.234181,3.725587,10.203442,17.309410,0.029766,-0.291497,-0.902243,7.560000,21.239478

1.456918,6.764867,8.184441,17.318233,0.199503,-0.137748,-0.816442,7.564000,21.239478

-1.500932,6.568475,9.829819,17.309410,-0.058166,-0.119096,-0.660562,7.572000,21.239478

2.362235,4.994947,7.585685,17.297646,-0.066160,-0.261387,-0.378645,7.580000,21.239478

1.698815,3.550750,11.259645,17.309410,-0.054969,-0.175586,-0.005064,7.588000,21.239478

5.200333,2.372401,9.535232,17.315292,-0.227370,-0.039424,0.583552,7.588000,21.239478

2.757413,-1.083612,10.895603,17.309410,-0.070690,0.181207,0.660559,7.580000,21.239478

0.467775,0.921019,9.628637,17.312351,-0.073355,0.316304,0.494819,7.580000,21.239478

-0.442333,0.537816,7.283913,17.321175,0.087322,0.285128,0.329879,7.576000,21.239478

-2.075736,-1.315929,6.986930,17.329998,0.012446,0.181207,0.142290,7.576000,21.239478

-4.322265,1.325777,9.882509,17.309410,-0.060831,0.297118,-0.016788,7.584000,21.239478

-1.211134,0.918624,9.228669,17.306469,-0.122117,0.246757,-0.219300,7.576000,21.239478

0.850978,2.192774,8.483818,17.315292,-0.122384,0.192665,-0.285649,7.584000,21.239478

0.089361,4.032149,10.694421,17.324116,-0.004341,0.214249,-0.250743,7.580000,21.239478

-3.831285,0.827613,12.833174,17.324116,-0.206586,0.165486,-0.475104,7.580000,21.239478

-1.414711,-1.076427,10.133986,17.338821,-0.118920,-0.006649,-0.603006,7.584000,21.239478

-0.083080,4.963812,6.273214,17.329998,0.267184,0.009605,-0.538522,7.584000,21.239478

2.034117,4.824901,3.315365,17.315292,-0.222041,-0.119096,-0.337609,7.576000,21.239478

2.759808,-6.129919,18.806353,17.324116,-0.162620,0.042380,-0.301637,7.580000,21.239478

0.364789,0.022887,17.941750,17.332939,0.294364,0.432748,-0.378112,7.592000,21.239478

-0.193251,4.324342,5.300837,17.309410,0.255727,0.015468,-0.220632,7.584000,21.239478

3.277133,1.443133,2.189706,17.327057,-0.218044,-0.260055,-0.256338,7.580000,21.239478

2.398160,-0.063334,6.409730,17.327057,-0.169015,0.208653,-0.218234,7.560000,21.239478

0.348024,1.639525,12.131433,17.312351,0.071068,0.367997,-0.370651,7.560000,21.239478

-1.711693,4.096815,0.323986,17.332939,-0.142102,0.064763,-0.306167,7.560000,21.239478

1.471288,-3.691789,13.673825,17.312351,-0.633459,-0.193439,-0.194785,7.556000,21.239478

3.102296,-2.173346,17.891455,17.324116,0.273313,0.487106,-0.350133,7.568000,21.239478

-4.815639,-1.169833,9.238249,17.306469,0.176854,0.478579,-0.355462,7.568000,21.239478

-11.739640,3.237003,16.349062,17.303528,0.023105,0.717863,-0.362657,7.560000,21.239478

-8.353083,3.335198,5.267306,17.312351,0.890174,-0.661347,-0.901177,7.576000,21.239478

-13.016186,-2.077546,11.970966,17.318233,-0.019529,-0.613117,-0.701064,7.584000,21.239478

-5.582045,13.533192,6.788144,17.315292,0.356982,-0.309617,-0.666424,7.584000,21.239478

1.763480,-4.429455,9.190349,17.309410,-0.405633,-1.456471,-0.487894,7.576000,21.239478

-2.205067,-0.753100,17.608843,17.309410,-0.071756,-0.514526,0.328280,7.572000,21.239478

4.268671,-3.157700,10.162726,17.309410,0.172057,-0.905427,0.974985,7.572000,21.239478

0.798287,-0.614189,-1.515389,17.315292,0.356449,-0.427127,1.291009,7.564000,21.239478

1.686840,7.013949,-0.442420,17.303528,0.523788,-0.405543,1.088231,7.560000,21.239478

-8.717126,-0.333971,11.365026,17.300587,-0.181538,1.584932,0.985643,7.568000,21.239478

-1.271010,-3.557668,24.765162,17.303528,-0.765891,-1.553730,0.572094,7.564000,10.703811

9.774820,-9.502106,9.329260,17.300587,1.385527,0.063964,0.290709,7.584000,10.703811

-6.554423,22.655821,4.896078,17.306469,1.998658,1.663005,-0.070081,7.584000,10.703811

9.228756,-0.882431,1.717887,17.309410,-0.223906,-0.338661,-0.878795,7.584000,10.703811

1.361117,9.840072,15.175503,17.324116,0.470762,0.371728,-0.566767,7.588000,10.703811

2.563417,-0.884826,2.038820,17.332939,0.184315,0.056236,-0.890785,7.600000,10.703811

-1.773964,9.638890,8.026369,17.315292,0.027635,-0.241935,-0.516672,7.596000,10.703811

6.692430,3.610626,13.546889,17.321175,-0.685952,-0.231010,-0.147089,7.592000,10.703811

2.982545,0.604876,12.131433,17.312351,0.118232,-0.028232,0.071944,7.600000,10.703811

0.587526,-0.892011,8.728109,17.329998,0.335665,-0.081258,0.289910,7.596000,10.703811

1.277291,0.389324,7.315048,17.327057,0.167261,-0.060208,0.515337,7.600000,10.703811

2.659218,6.132582,5.044569,17.312351,0.251996,-0.068202,0.639509,7.596000,10.703811

1.452128,4.547079,12.193704,17.306469,-0.571906,0.107930,0.877726,7.584000,10.703811

2.525096,-5.691630,10.478869,17.294704,-0.661437,0.095673,0.874795,7.576000,10.703811

2.034117,2.068233,2.814806,17.315292,0.210161,0.280598,1.028011,7.576000,10.703811

0.465380,5.284745,-4.224156,17.315292,-0.108261,0.134310,1.328314,7.572000,10.703811

0.474960,-2.860717,23.488615,17.321175,-1.207419,0.274203,1.746394,7.556000,10.703811

6.735541,-1.109958,29.399523,17.332939,0.991429,0.892129,1.928654,7.576000,10.703811

-6.264625,2.094578,10.462104,17.318233,-0.078417,1.084515,1.578256,7.580000,10.703811

0.407899,5.502691,-7.239485,17.329998,-0.017397,0.246491,0.733303,7.588000,10.703811

-3.345096,3.198682,13.848661,17.324116,0.099047,1.205489,-0.142026,7.580000,10.703811

-2.351163,6.362504,19.443428,17.329998,-0.138371,1.098904,-1.030678,7.584000,10.703811

-6.319711,3.265743,3.411166,17.324116,0.447047,0.644852,-1.320323,7.596000,21.656221

-6.391562,2.769974,2.433998,17.327057,-0.380319,0.377590,-1.717618,7.596000,21.656221

-3.110384,5.306300,13.477434,17.324116,-0.243091,0.316304,-2.215637,7.596000,21.656221

-2.791847,-0.032199,10.663286,17.332939,-0.070690,-0.036493,-2.242283,7.600000,219.886613

-3.237321,-2.161371,7.741362,17.324116,0.058278,-0.099111,-1.838592,7.596000,219.886613

0.144447,-6.450851,9.262199,17.329998,0.077463,-0.607788,-1.677916,7.604000,219.886613

4.359682,-5.191071,3.027963,17.329998,1.224584,0.018932,-1.555876,7.616000,151.174593

-10.958864,27.879358,9.851375,17.341763,1.250697,0.799134,-1.180697,7.612000,770.023842

-4.209699,0.164193,20.698418,17.321175,-1.460558,-2.599062,-1.224929,7.604000,770.023842

-2.621801,-14.852580,5.319997,17.332939,-0.949750,0.151097,-0.619527,7.604000,2744.237134

0.084571,1.902977,9.084968,17.329998,1.994394,-0.718636,-0.590749,7.600000,2609.629709

-5.689821,8.000697,17.807629,17.315292,-0.073621,-0.785519,-0.028246,7.584000,2609.629709

1.346747,-5.176701,4.639812,17.321175,-0.010469,-0.730361,-0.363989,7.584000,2609.629709

-6.978341,-3.071479,14.538427,17.312351,0.328737,-0.834814,-0.288580,7.584000,2609.629709

4.730909,0.310289,9.029882,17.318233,0.825423,-1.018940,0.009591,7.592000,2609.629709

1.583854,8.237803,0.295246,17.324116,0.835815,-0.883577,0.387169,7.580000,2609.629709

0.664166,11.030396,6.052873,17.315292,0.052949,-0.697586,0.927821,7.572000,2609.629709

-0.780031,4.324342,5.248146,17.318233,0.246400,-0.557160,1.475934,7.576000,2609.629709

-3.860026,-1.667997,10.481264,17.321175,-0.005940,-0.654419,1.589447,7.584000,2609.629709

-0.995582,6.944493,15.946699,17.318233,0.098780,-0.545702,1.604369,7.592000,2609.629709

4.994361,1.227581,8.265871,17.329998,0.145944,-0.640297,1.488458,7.592000,2609.629709

3.787271,3.924373,8.134145,17.318233,0.158734,-0.462300,1.749058,7.592000,2609.629709

4.057909,2.255045,4.922423,17.332939,0.216024,-0.149739,2.114112,7.588000,2609.629709

2.968175,-4.043857,13.422348,17.327057,0.051350,0.098604,1.925190,7.588000,2609.629709

2.611317,-4.609081,10.771062,17.338821,0.098514,0.303247,1.625686,7.584000,2609.629709

8.232428,1.486243,0.077299,17.344706,0.011913,0.492435,1.185757,7.588000,2609.629709

5.080582,0.822823,9.175979,17.338821,0.158468,0.991520,1.271558,7.576000,2609.629709

-3.381022,0.377349,8.110195,17.338821,-0.198059,1.025360,0.612862,7.556000,2609.629709

-2.284103,0.377349,1.341869,17.344706,-0.473048,0.874276,0.067414,7.564000,2609.629709

1.418597,-8.060305,10.474079,17.350588,0.115834,0.999780,-0.148687,7.576000,2609.629709

0.041461,6.628351,11.147079,17.347647,0.914955,1.286760,-0.294442,7.572000,2609.629709

-5.788016,13.078138,3.835085,17.347647,-0.000077,1.114625,-0.788197,7.572000,2609.629709

-6.494547,3.854918,10.167517,17.382940,-0.857554,0.522013,-0.991775,7.572000,2609.629709

-0.966842,4.060890,4.491320,17.377058,0.091319,0.577171,-0.890519,7.576000,2609.629709

-5.359308,11.487845,3.399191,17.377058,-0.456794,0.323232,-1.227061,7.580000,2609.629709

-2.593060,-1.280004,19.879320,17.394705,-0.399771,-0.072465,-1.071980,7.584000,2609.629709

-7.244188,-2.190112,18.609961,17.391764,0.244802,0.449535,-0.903842,7.604000,2609.629709

-12.510837,1.967642,10.265713,17.388823,-0.046175,0.300849,-0.773808,7.612000,2609.629709

-0.547714,8.050992,5.870851,17.397646,0.089454,-0.931540,-1.060788,7.608000,2708.375199

1.959872,-0.947096,9.329260,17.385881,0.194707,-0.484682,-0.681612,7.604000,2648.453106

-1.687743,-12.783282,20.372696,17.400587,-0.061097,-0.014643,-0.011193,7.600000,2559.601828

-0.274681,2.235884,13.489408,17.397646,0.394021,-0.128156,0.499083,7.612000,2559.601828

3.854332,11.823148,-5.019302,17.406469,0.596532,-0.689059,0.145487,7.592000,336.300298

7.600143,-7.686681,4.223078,17.397646,-0.474381,-0.558759,0.246743,7.580000,336.300298

-0.207621,0.250413,14.150434,17.382940,-0.022460,0.210252,0.457781,7.584000,336.300298

-1.591942,5.160203,3.708149,17.400587,0.297828,0.061566,-0.087135,7.584000,336.300298

-4.858749,-2.501464,8.107800,17.379999,-0.413361,0.071158,-0.753824,7.588000,336.300298

-3.778595,-4.664166,9.635822,17.403528,0.246667,-0.253393,-1.309931,7.580000,336.300298

0.182767,-1.869179,13.146921,17.397646,0.293031,-0.365307,-1.560938,7.576000,336.300298

-0.159721,9.811332,9.195139,17.391764,0.725233,-0.194771,-1.602240,7.580000,336.300298

-4.851564,12.323707,2.132226,17.377058,0.228281,-0.347987,-1.284084,7.584000,64.657476

-1.263825,1.625154,11.614109,17.388823,-0.435211,-1.201200,-0.732507,7.580000,64.657476

-1.364415,-4.060622,10.454919,17.394705,0.270116,-0.494009,0.135628,7.596000,64.657476

1.655704,13.779879,8.253896,17.415293,0.731895,-0.398615,0.694933,7.604000,64.657476

8.574915,15.667153,17.522621,17.403528,-0.318767,-0.276309,1.362954,7.604000,64.657476

6.290067,-7.660336,8.728109,17.412352,-0.222574,-0.236606,1.608100,7.596000,64.657476

-4.731813,-1.093193,10.711186,17.397646,0.173123,0.376258,1.324051,7.600000,64.657476

3.710631,4.405772,6.915080,17.421175,0.188578,0.432215,1.143389,7.604000,64.657476

4.951251,1.158126,13.867822,17.406469,-0.627597,0.364267,1.164440,7.600000,64.657476

2.496356,-0.999787,9.719648,17.412352,0.174722,0.948886,0.937680,7.600000,64.657476

-6.429882,-4.843793,11.774575,17.418234,0.246667,0.632062,0.249940,7.600000,64.657476

-1.639843,2.322105,5.832531,17.424116,0.254394,0.690417,-0.328017,7.596000,2465.087815

1.286871,-0.053754,10.397439,17.427057,-0.227103,0.322965,-0.312828,7.580000,2465.087815

-4.214489,-0.587843,9.420271,17.406469,-0.040846,0.531073,-0.237153,7.576000,2465.087815

-3.021769,9.001815,1.016147,17.432940,0.303157,0.402371,-0.637380,7.576000,2465.087815

-8.154296,5.016502,-0.471160,17.424116,-0.639587,0.259014,-0.388770,7.564000,2465.087815

-0.506998,-14.543622,28.642698,17.412352,-0.876206,0.110062,-0.316559,7.576000,2465.087815

1.286871,12.067440,5.255331,17.421175,1.497175,0.286193,-0.327484,7.596000,2465.087815

-6.743629,7.646234,7.827582,17.427057,-0.490102,0.463391,0.185457,7.584000,2465.087815

-1.256639,6.118211,2.096301,17.432940,0.011380,-0.330401,-0.037839,7.600000,2465.087815

-7.639367,12.905697,-11.586446,17.424116,0.046820,0.102334,-0.466577,7.600000,2465.087815

-3.450477,4.491993,20.561901,17.400587,-0.504491,-0.813231,-0.716252,7.600000,2465.087815

1.138380,-4.985099,23.323359,17.429998,-0.111192,-0.031963,-0.140960,7.620000,2465.087815

-6.712494,-3.584013,6.304350,17.421175,0.401482,-0.912888,-0.116179,7.624000,40.048338

-2.868488,0.832403,1.799318,17.412352,0.676471,-0.120961,-0.638978,7.612000,40.048338

-1.151259,2.190379,7.988049,17.429998,-0.472249,-1.027200,-0.577425,7.600000,40.048338

6.057750,-5.454523,11.769785,17.418234,0.172057,-0.339194,-0.266464,7.596000,40.048338

0.728832,-3.940871,8.608358,17.415293,0.450511,-0.283503,-0.205710,7.596000,40.048338

1.073714,3.601046,-0.988485,17.427057,1.192609,-0.604591,-0.508678,7.604000,40.048338

-2.746342,16.107838,16.047289,17.429998,-0.106396,1.400007,-0.581955,7.592000,40.048338

-7.045402,-11.767795,13.170872,17.429998,-0.789073,-2.688860,-0.253407,7.576000,40.048338

6.840921,1.467083,4.829018,17.421175,1.034596,0.203590,0.266461,7.576000,40.048338

-6.506522,1.208421,17.046013,17.418234,-0.158090,-0.306952,-0.706660,7.572000,40.048338

5.516476,-5.777851,7.427614,17.435881,0.103576,-0.878514,-0.490559,7.580000,40.048338

1.986217,5.493111,-8.118458,17.432940,1.438553,-0.196903,-0.753291,7.596000,40.048338

-13.526325,28.578703,15.704802,17.432940,0.221886,-0.528382,-1.437833,7.580000,40.048338

19.251913,-2.570920,13.568444,17.427057,-1.349710,-0.877182,-1.203879,7.568000,40.048338

-4.291129,19.664440,5.779840,17.427057,1.621080,0.260347,-0.046899,7.584000,40.048338

3.866307,-1.876364,5.528364,17.438822,-0.220442,-0.964848,0.741031,7.592000,40.048338

-2.973868,6.431959,15.999390,17.427057,-0.512218,-0.534244,1.478333,7.584000,40.048338

9.667045,0.176168,7.686276,17.429998,0.373503,-0.014110,1.839389,7.600000,40.048338

-1.575177,8.326420,8.483818,17.438822,0.054547,0.047177,1.923325,7.604000,40.048338

-1.469796,4.293207,8.596384,17.438822,-0.107995,0.206255,1.698697,7.600000,40.048338

-2.717601,-5.076110,9.484936,17.447645,-0.351275,-0.004517,1.501781,7.600000,40.048338

-1.115333,-1.861994,8.613149,17.450586,0.147543,0.137507,1.253971,7.600000,40.048338

-3.419342,2.231094,9.937595,17.441763,0.130756,0.270206,1.226259,7.596000,40.048338

-0.557294,0.106712,9.432246,17.441763,-0.008071,0.178276,1.411983,7.600000,40.048338

2.855609,-0.650114,11.099179,17.450586,-0.152760,0.396775,1.584385,7.600000,40.048338

3.068766,1.768856,11.578183,17.427057,0.115567,0.622469,1.872964,7.592000,40.048338

5.068607,-0.511203,7.338998,17.450586,0.218422,0.696279,2.101322,7.596000,40.048338

3.629200,4.695570,7.118657,17.465292,0.564290,0.998981,2.048829,7.596000,19.843774

-0.693810,5.100328,9.231064,17.477058,0.126759,1.033354,1.733071,7.596000,19.843774

0.249828,4.333922,8.014394,17.471176,0.287702,1.067994,1.400259,7.600000,19.843774

0.381554,6.575660,5.724755,17.462351,0.379632,1.241995,0.988042,7.604000,19.843774

-1.630263,8.101288,5.183481,17.462351,0.097181,1.169250,0.333876,7.612000,19.843774

-4.408485,4.307577,7.679091,17.465292,0.009515,1.152463,-0.176666,7.620000,19.843774

-4.164193,7.763590,7.370133,17.468235,0.173656,1.061866,-0.711190,7.628000,19.843774

-6.975946,5.493111,9.499307,17.474117,-0.056301,1.002445,-1.113814,7.628000,19.843774

-7.313644,4.616534,9.884905,17.474117,-0.197793,0.596622,-1.342706,7.628000,19.843774

-4.980895,-0.025014,10.198652,17.441763,-0.084812,0.111661,-1.410920,7.632000,19.843774

-2.818192,0.533026,10.327983,17.480000,-0.269737,0.193198,-1.433569,7.632000,19.843774

-0.353717,0.782108,10.038186,17.450586,0.035629,0.022929,-1.453021,7.628000,19.843774

1.272501,-1.797328,8.198811,17.447645,-0.170080,-0.076728,-1.325652,7.616000,19.843774

1.713185,0.652777,12.006892,17.447645,-0.044577,-0.124159,-1.165775,7.620000,19.843774

-0.906967,2.142479,11.384187,17.477058,0.030566,0.021863,-1.060256,7.608000,19.843774

-0.090265,2.465806,10.981823,17.462351,0.020440,-0.222483,-1.163376,7.608000,19.843774

-0.495023,1.007240,7.873087,17.459410,0.152339,-0.315479,-1.138595,7.600000,19.843774

-1.941615,-0.219010,8.529324,17.471176,0.121962,-0.412738,-1.101024,7.608000,19.843774

-4.125873,0.202513,8.742480,17.480000,0.093984,-0.529981,-1.106087,7.604000,19.843774

-6.724469,1.759276,12.059582,17.465292,0.474226,-0.523053,-1.017622,7.596000,19.843774

-0.789611,1.620364,6.874364,17.459410,0.225883,-0.823356,-0.925692,7.604000,19.843774

1.289266,5.191339,7.899433,17.471176,0.197904,-0.787117,-0.666157,7.608000,19.843774

1.555114,6.494229,6.261240,17.480000,0.420400,-0.666943,-0.244081,7.608000,19.843774

1.725160,9.665236,6.448051,17.485882,0.457972,-0.547568,0.202244,7.624000,19.843774

5.866148,8.015067,9.156818,17.465292,-0.066960,-0.603525,0.702127,7.620000,19.843774

6.045775,6.348133,9.468171,17.462351,0.129690,-0.147874,1.190553,7.628000,19.843774

4.335731,6.616375,10.002260,17.462351,0.133154,0.013602,1.400792,7.632000,19.843774

4.517753,2.283785,10.895603,17.459410,-0.232699,0.083682,1.436231,7.636000,19.843774

0.963544,0.255203,11.360236,17.462351,-0.095737,0.330959,1.402124,7.628000,19.843774

-0.995582,1.103040,12.054792,17.482941,-0.160754,0.428218,1.254771,7.620000,19.843774

2.359840,-3.327746,10.086086,17.468235,-0.167149,0.489238,0.967524,7.624000,19.843774

0.084571,-0.087284,7.554550,17.468235,0.278909,0.722126,0.823368,7.624000,19.843774

-0.054340,5.933795,9.820239,17.477058,0.043089,0.450068,0.570761,7.616000,19.843774

0.185162,1.536539,8.361671,17.474117,0.002321,0.639789,0.392764,7.612000,19.843774

0.582735,1.881422,7.468329,17.480000,0.088122,0.512420,0.527861,7.616000,19.843774

0.783917,4.592584,7.937753,17.477058,0.066805,0.639256,0.471637,7.616000,19.843774

-2.533185,4.877591,6.119933,17.471176,-0.201790,0.758099,0.379708,7.612000,19.843774

-1.773964,1.859866,9.626243,17.477058,-0.107728,0.749039,0.268859,7.620000,19.843774

-2.717601,8.295284,5.784631,17.474117,0.179252,0.810059,0.061019,7.628000,19.843774

-5.613180,5.234449,8.720924,17.480000,-0.181005,0.562782,-0.275790,7.628000,19.843774

-6.058653,1.826336,9.815449,17.474117,-0.238295,0.549192,-0.747429,7.632000,19.843774

-5.194052,4.010594,12.876284,17.500587,-0.123450,0.341085,-0.818841,7.640000,19.843774

-5.761671,3.004686,12.306270,17.474117,-0.021128,0.208120,-0.902510,7.640000,19.843774

-4.609667,-0.858481,6.239684,17.491764,0.030832,0.012803,-1.406390,7.640000,19.843774

0.113312,-0.623769,9.144843,17.485882,0.014578,-0.402346,-1.439165,7.640000,19.843774

-2.643356,-1.399755,12.612832,17.500587,-0.043511,-0.214223,-1.231591,7.636000,19.843774

-2.097291,-1.404545,11.453642,17.474117,0.205099,-0.328535,-1.279821,7.632000,19.843774

-3.170260,0.425250,6.289979,17.462351,0.210161,-0.306952,-1.288614,7.624000,19.843774

-1.994306,-0.446537,9.963940,17.485882,0.020174,-0.449243,-1.119677,7.624000,10.950088

-2.116452,0.906649,10.593830,17.497646,0.149142,-0.464698,-1.090899,7.628000,10.950088

-1.620682,2.307735,9.664562,17.488823,0.263987,-0.478287,-0.945144,7.624000,10.950088

-0.837511,3.823783,8.797565,17.477058,0.399083,-0.565687,-0.785533,7.632000,10.950088

-1.215924,1.948482,7.568920,17.482941,0.418802,-0.738088,-0.668289,7.628000,10.950088

-2.552345,3.859708,8.694579,17.471176,0.440119,-0.778324,-0.526265,7.628000,10.950088

2.084413,0.259993,5.224196,17.462351,0.110505,-0.861194,-0.221965,7.632000,10.950088

-0.154930,3.919583,9.805869,17.462351,0.178452,-0.407408,-0.019453,7.632000,10.950088

1.401832,5.605677,7.796447,17.491764,0.251463,-0.342125,0.393830,7.632000,10.950088

6.079305,8.398270,9.118498,17.491764,-0.103998,-0.375433,0.747959,7.636000,10.950088

6.333178,10.036464,8.385622,17.482941,0.364443,-0.078327,1.024014,7.640000,10.950088

4.745279,7.662999,10.366303,17.494705,0.141148,-0.091117,1.229723,7.644000,10.950088

3.614830,5.917030,14.330061,17.491764,-0.022194,0.061832,1.215068,7.644000,10.950088

2.175424,-2.839162,8.981982,17.482941,0.120364,0.143903,1.116210,7.652000,10.950088

-3.929481,1.610784,12.545772,17.477058,-0.167416,0.462059,0.993904,7.640000,10.950088

2.395765,-4.065412,4.726032,17.488823,-0.164218,0.278466,0.477233,7.636000,10.950088

1.600619,2.041888,9.221484,17.465292,0.619181,0.466589,0.127368,7.640000,10.950088

-3.057694,0.592901,10.541140,17.485882,-0.333422,0.579569,-0.087934,7.636000,10.950088

0.024696,3.919583,3.827900,17.480000,0.137417,0.350944,-0.553444,7.632000,10.950088

-0.990792,3.129227,8.610754,17.509411,-0.325961,0.253952,-0.722914,7.628000,10.950088

2.127523,-1.174623,10.361513,17.494705,0.010048,0.379189,-0.564102,7.640000,10.950088

-2.866093,5.174574,9.973520,17.488823,-0.054969,0.465256,-0.436467,7.632000,10.950088

-2.669701,4.887171,5.679250,17.482941,0.159800,0.325896,-0.472972,7.636000,10.950088

-4.456386,-0.197455,9.549602,17.494705,-0.138371,-0.027433,-0.428473,7.640000,22.302593

-3.074459,6.369689,6.028923,17.482941,0.241338,0.252353,-0.570498,7.644000,22.302593

-7.435790,7.706109,8.797565,17.506470,-0.025391,0.268340,-0.754889,7.648000,22.302593

-3.615734,0.406090,12.610436,17.491764,0.327139,-0.095647,-0.871334,7.656000,22.302593

-4.221673,-2.810422,9.391530,17.482941,-0.086944,-0.389289,-0.778072,7.656000,22.302593

-2.918783,4.281231,-2.166834,17.491764,-0.165018,-0.816428,-0.425808,7.648000,22.302593

-3.792965,7.459422,9.300520,17.482941,-0.349143,-0.672006,-0.181729,7.636000,22.302593

7.753424,-12.706642,26.020151,17.485882,-0.237229,-0.856930,-0.322421,7.644000,22.302593

-1.711693,5.780514,9.635822,17.480000,1.466532,0.212117,0.140691,7.656000,22.302593

-3.491193,5.603282,3.952441,17.477058,-0.158623,-1.050649,0.448455,7.644000,22.302593

-2.470914,-1.205759,6.757009,17.488823,-0.021394,-0.390088,0.465242,7.644000,22.302593

-3.553463,-4.086967,12.631992,17.468235,0.038293,-0.531846,0.185457,7.640000,22.302593

-0.301027,0.185748,13.173266,17.485882,0.351920,-0.474024,0.163873,7.640000,22.302593

-6.278996,4.935072,9.101733,17.488823,-0.077085,-0.087653,0.457515,7.636000,22.302593

2.187399,-2.463144,7.209667,17.459410,-0.198059,-0.713574,0.543049,7.640000,22.302593

2.886744,1.081485,6.335485,17.485882,0.727099,-0.232342,0.481230,7.648000,22.302593

0.882113,11.952479,6.931845,17.474117,0.520590,-0.147874,0.538253,7.656000,22.302593

2.204164,5.505086,8.071875,17.477058,-0.907382,-0.680266,0.631515,7.648000,22.302593

5.885309,-3.924106,9.985496,17.482941,0.330336,0.461259,1.003496,7.656000,22.302593

3.722606,3.459739,8.886181,17.491764,1.662649,0.499630,1.024014,7.676000,22.302593

-5.713771,24.456875,4.318879,17.485882,0.122495,0.485507,0.414881,7.672000,22.302593

3.495080,-6.058068,13.245117,17.474117,-1.173578,0.302714,0.222228,7.664000,22.302593

-0.162116,-5.282082,9.437036,17.468235,0.290633,0.250221,0.381040,7.664000,23.511770

-0.792006,0.336634,8.067084,17.482941,-0.106662,0.435146,0.187588,7.656000,23.511770

-0.315397,1.785621,16.519108,17.497646,-0.180739,0.321367,0.135895,7.660000,23.511770

-0.607589,-0.714779,7.707831,17.488823,0.002854,0.378123,0.068746,7.648000,23.511770

2.489171,-2.185322,2.783671,17.491764,-0.004074,0.266742,-0.005597,7.648000,23.511770

2.429296,10.081968,5.102050,17.500587,0.217889,0.791406,0.220896,7.648000,23.511770

-2.423014,7.617494,8.881392,17.488823,-0.464522,0.162288,0.177196,7.636000,23.511770

-0.157326,-12.821603,21.345074,17.491764,-1.218877,0.287526,-0.054626,7.624000,23.511770

3.655546,0.818033,9.178373,17.497646,0.580011,1.152730,-0.050896,7.648000,23.511770

0.441429,6.499020,2.065165,17.488823,0.421733,0.540665,-0.234488,7.648000,23.511770

-3.436107,7.081009,6.151069,17.494705,-0.432813,0.876674,-0.249144,7.648000,23.511770

-3.400182,6.386454,0.163520,17.518234,0.549102,0.701609,-0.371184,7.648000,23.511770

-12.692858,4.841666,10.035790,17.503529,-0.911379,0.468187,-0.398363,7.648000,23.511770

-1.783544,0.911439,22.659939,17.506470,-0.123716,-0.294162,-1.186559,7.648000,23.511770

-10.716967,4.515944,15.838923,17.509411,0.021772,0.380521,-0.620859,7.656000,23.511770

-7.895634,-1.172228,6.215734,17.500587,0.339929,-0.782055,-0.676283,7.652000,23.511770

-3.309171,-2.899037,11.887141,17.500587,-0.721924,-0.863592,-0.765015,7.640000,23.511770

8.012086,-9.458996,14.921631,17.509411,-0.067226,-0.638964,-0.651502,7.644000,23.511770

1.215021,3.153177,12.447576,17.503529,0.601595,0.041847,-0.041303,7.656000,23.511770

-3.416947,6.956468,-0.880709,17.515293,0.944799,-0.117231,-0.016788,7.648000,23.511770

-0.897387,-1.632072,14.447416,17.503529,-0.823713,-0.717038,0.147885,7.632000,23.511770

4.053119,7.373202,5.006249,17.494705,0.431325,-0.178517,0.390899,7.632000,23.511770

-0.923732,-0.077704,15.098862,17.509411,-0.197793,-0.003984,0.400492,7.636000,22.053967

-2.679281,-1.371015,15.539546,17.500587,0.338863,0.053039,0.314158,7.644000,22.053967

3.001705,-2.508649,3.739284,17.500587,0.083325,-0.427659,0.240614,7.656000,22.053967

-1.112938,18.464537,4.802673,17.506470,1.034863,0.534004,0.171334,7.652000,22.053967

0.041461,4.022569,10.845307,17.488823,-0.474381,-0.562756,-0.055692,7.644000,22.053967

8.311463,-1.840439,8.634704,17.491764,-0.383783,-0.098578,0.026911,7.648000,22.053967

2.182609,6.554105,10.198652,17.494705,0.495010,0.595823,0.171068,7.664000,22.053967

0.261803,16.021616,9.643007,17.503529,0.023105,0.121253,0.185457,7.656000,22.053967

7.533082,-1.351855,7.976073,17.509411,-0.474647,-0.165993,0.045830,7.656000,22.053967

5.645807,-1.172228,8.668234,17.518234,-0.122117,0.587030,-0.055426,7.656000,22.053967

2.062858,3.438184,9.556787,17.485882,-0.111725,0.793538,-0.371983,7.656000,22.053967

-1.266220,0.054022,6.833649,17.503529,0.364443,0.720261,-0.726112,7.656000,22.053967

-1.189579,-4.994679,5.346342,17.503529,0.128091,0.315238,-1.084770,7.652000,22.053967

-3.249296,4.487203,11.774575,17.515293,-0.138904,0.761829,-1.236920,7.652000,22.053967

-6.219120,3.351964,13.360078,17.488823,-0.256681,0.482843,-1.399995,7.648000,22.053967

-2.899623,-6.620897,8.356882,17.500587,-0.417358,-0.090318,-1.786366,7.644000,22.053967

-0.873436,-1.433285,7.741362,17.494705,0.280241,0.258215,-1.483665,7.644000,22.053967

-1.735643,5.912240,11.810500,17.494705,0.133953,0.160690,-0.998969,7.644000,22.053967

-1.431476,1.574859,10.203442,17.506470,-0.070157,-0.038358,-0.676017,7.640000,22.053967

-2.815797,-1.392570,5.770260,17.506470,0.245867,0.104200,-0.440197,7.644000,22.053967

-6.640643,4.808136,7.195297,17.497646,0.278109,0.225174,-0.345070,7.644000,22.053967

-5.541329,2.940020,13.465459,17.503529,-0.245489,-0.233408,-0.580090,7.652000,22.053967

-3.596574,0.147428,11.623689,17.512352,0.201901,0.005342,-0.919297,7.664000,22.053967

-5.780831,4.137530,7.370133,17.500587,0.451843,-0.250995,-1.008828,7.660000,22.053967

-6.092184,1.814361,10.601015,17.512352,0.030299,-0.734624,-1.130602,7.668000,22.484459

-2.624196,1.941297,13.252302,17.488823,0.258391,-0.711176,-1.237986,7.664000,22.484459

0.491725,1.320987,8.668234,17.509411,0.707647,-0.680266,-1.058124,7.664000,22.484459

-5.876632,-0.080099,8.289822,17.503529,0.437454,-0.892903,-0.486562,7.664000,22.484459

-4.480336,3.126832,4.280559,17.497646,0.383629,-0.944330,-0.169471,7.664000,22.484459

-6.444252,1.790411,8.912526,17.527058,0.435322,-0.887307,-0.265132,7.660000,22.484459

-4.008517,4.197406,11.149475,17.538822,0.468630,-1.230244,-0.158546,7.664000,22.484459

1.576669,-7.267553,14.988691,17.529999,-0.052837,-1.010946,-0.045033,7.660000,22.484459

-1.668583,-9.940394,16.411333,17.506470,0.985301,-0.794312,0.267527,7.668000,22.484459

-5.464689,5.485926,10.320798,17.527058,1.266419,-0.912088,1.407986,7.668000,22.484459

3.887863,7.763590,-7.340077,17.527058,0.476624,-1.649656,2.466642,7.644000,22.484459

2.884349,7.227106,3.008803,17.532940,-0.198326,-0.798842,2.626253,7.632000,22.484459

-4.631222,-0.856086,14.308506,17.550587,0.319944,-0.578477,2.930286,7.648000,22.484459

1.282081,3.989039,9.286150,17.541763,0.477157,-0.656551,3.353429,7.656000,22.484459

6.886427,1.979617,9.202324,17.538822,-0.296117,0.013336,3.263897,7.660000,22.484459

0.759967,-0.549523,10.265713,17.556469,0.578946,0.368797,2.408819,7.668000,22.484459

5.003942,7.847416,10.093271,17.544704,0.513662,0.455930,1.359224,7.680000,22.484459

2.889139,3.579490,10.507609,17.565292,0.044688,0.868414,0.737567,7.680000,22.484459

-1.160839,-0.532758,14.749189,17.544704,0.390290,1.033621,0.578222,7.680000,22.484459

-0.358507,2.199959,7.928173,17.559410,0.474492,0.673630,0.326948,7.680000,22.484459

0.245038,7.152860,9.298124,17.579998,-0.066160,0.774619,-0.001867,7.672000,22.484459

3.710631,-0.894406,14.069004,17.582939,-0.071756,0.517749,-0.134032,7.660000,23.259128

0.436639,1.998778,12.900234,17.579998,-0.091741,0.864950,0.164406,7.652000,23.259128

-5.651500,4.515944,6.505531,17.585880,0.489681,0.422089,0.415414,7.644000,23.259128

-6.932836,-4.417480,8.728109,17.582939,-0.441872,0.134043,0.568363,7.648000,23.259128

5.039867,4.784185,8.356882,17.579998,0.079595,0.409832,0.996835,7.652000,23.259128

3.657941,8.132422,9.068203,17.571175,0.287436,0.824181,1.445025,7.656000,23.259128

-1.687743,2.171219,5.712780,17.562351,0.058278,0.529474,1.289677,7.652000,23.259128

-3.919901,0.355794,10.450130,17.582939,-0.263076,0.634726,0.826832,7.656000,23.259128

3.092716,8.086918,10.847702,17.574116,0.242670,0.785278,0.455117,7.660000,23.259128

3.789667,5.617652,8.958032,17.577057,0.359913,0.720527,0.068746,7.664000,23.259128

-1.738038,3.378309,2.244792,17.571175,-0.025391,0.704273,-0.245413,7.660000,23.259128

-4.025282,4.463253,1.442460,17.588821,-0.147964,0.632595,-0.908372,7.664000,23.259128

-3.309171,8.712018,7.458749,17.591763,-0.732849,0.332558,-1.377346,7.648000,23.259128

-0.298632,-13.887386,30.371902,17.594706,-0.452797,0.112993,-1.287282,7.648000,23.259128

0.175582,0.324659,8.349697,17.594706,0.248266,0.777550,-1.159380,7.664000,23.259128

-5.704191,1.840706,5.276886,17.585880,-0.081348,0.422622,-0.994439,7.656000,23.259128

-4.295919,1.378468,9.774734,17.577057,-0.080549,0.224641,-0.841490,7.652000,23.259128

-3.278036,-4.939594,13.027170,17.588821,-0.185802,0.052239,-0.845220,7.644000,23.259128

-3.203790,5.634418,13.230747,17.585880,0.117166,0.204922,-0.912369,7.640000,23.259128

-2.715206,3.653736,7.192902,17.577057,0.042823,-0.097779,-0.802586,7.636000,23.259128

-3.292406,-0.678854,4.630231,17.603529,-0.251884,-0.415669,-0.728243,7.644000,23.259128

-1.168024,-4.314494,15.307229,17.591763,0.319944,-0.268581,-0.683478,7.648000,23.259128

-3.158285,1.924532,12.097902,17.603529,0.611987,-0.260055,-0.378911,7.648000,23.259128

-2.863698,2.159244,-1.036385,17.591763,0.338330,-0.231277,-0.436467,7.644000,23.259128

-4.573741,0.983289,6.979745,17.600588,-0.255615,-0.557427,-0.409821,7.652000,23.259128

-0.645909,5.150623,11.913486,17.585880,0.461436,-0.310150,-0.146289,7.656000,21.336407

1.219811,10.702279,7.530600,17.603529,0.288768,-0.343191,0.010124,7.656000,21.336407

2.759808,6.580450,9.643007,17.582939,-0.296384,-0.185712,0.229689,7.660000,21.336407

3.286713,1.131781,11.441668,17.609411,-0.185802,-0.214223,0.512939,7.664000,21.336407

-0.497418,3.840548,12.897839,17.603529,0.312483,0.141771,0.393564,7.672000,21.336407

-2.023046,5.969720,5.063730,17.585880,0.286370,-0.175320,0.159610,7.676000,21.336407

-2.346373,2.027518,12.952925,17.579998,-0.551122,-0.158799,0.053824,7.672000,21.336407

1.193465,-8.797970,16.428097,17.594706,-0.115722,-0.074597,-0.122308,7.672000,21.336407

-1.783544,4.001014,13.724121,17.606470,0.921083,0.194264,-0.047165,7.680000,21.336407

2.786154,0.595296,4.201523,17.597647,-0.889263,-0.582741,-0.040770,7.660000,21.336407

3.154986,-6.259250,2.671105,17.597647,-0.154892,-0.016774,0.468440,7.656000,21.336407

4.591998,4.868011,6.953400,17.603529,0.583475,0.261945,1.108483,7.664000,21.336407

2.156263,3.311248,17.369341,17.588821,-0.113857,0.075155,1.392532,7.652000,21.336407

-0.679440,2.314920,10.493239,17.597647,-0.018730,0.312307,1.438630,7.652000,21.336407

2.939435,-0.415402,3.135739,17.594706,-0.000344,0.318968,1.193751,7.652000,21.336407

4.503383,8.371924,6.876760,17.597647,0.257325,0.808726,0.927555,7.664000,21.336407

0.690511,3.989039,14.780324,17.600588,-0.316368,0.907318,0.470305,7.656000,21.336407

-3.591784,-1.256054,13.381633,17.609411,0.083059,0.734916,-0.042902,7.664000,21.336407

-4.592902,-3.354091,8.253896,17.621176,-0.081348,0.672298,-0.687474,7.672000,21.336407

-4.652777,5.423656,10.359118,17.624117,0.203766,0.956347,-1.510311,7.668000,21.336407

-6.990316,15.066005,4.929609,17.597647,0.350587,0.807128,-1.874032,7.668000,21.336407

-4.348610,-0.240566,10.344748,17.597647,-0.145566,-0.855065,-2.170605,7.656000,21.336407

-3.718719,-6.472406,10.277688,17.588821,-0.405633,-0.452707,-1.955303,7.660000,21.336407

3.396883,6.297838,5.171505,17.606470,0.404946,-0.268581,-1.446626,7.660000,22.519719

1.418597,5.380546,1.567001,17.612352,0.050550,-0.370370,-0.925159,7.656000,22.519719

-0.272286,3.514825,13.932487,17.597647,-0.449866,-0.335730,-0.520403,7.660000,22.519719

-0.883016,0.248018,17.539387,17.612352,0.106241,0.019997,-0.206243,7.660000,22.519719

-2.367929,1.184471,12.864308,17.603529,0.501671,-0.289099,0.025313,7.672000,22.519719

0.556390,7.045084,5.133185,17.588821,0.125426,-0.209693,0.148685,7.668000,22.519719

-7.531590,-4.197138,15.563496,17.579998,0.155537,-0.269914,-0.118311,7.664000,22.519719

-4.044442,-1.260844,11.570998,17.585880,0.578413,-0.574480,-0.453254,7.664000,22.519719

-1.074618,7.742035,-0.535826,17.591763,0.323408,-0.690391,-0.473505,7.660000,22.519719

-2.245783,3.672896,0.774250,17.594706,-0.089875,-0.554496,-0.055159,7.652000,22.519719

0.774337,0.789293,14.332456,17.606470,0.048952,-0.628039,0.363720,7.664000,22.519719

0.257013,8.798238,8.371252,17.571175,0.662348,-0.227813,0.638176,7.672000,22.519719

4.021984,11.514191,7.343788,17.591763,-0.016065,-0.410872,0.628850,7.676000,22.519719

8.251588,5.926610,13.997153,17.582939,-0.220708,-0.284303,0.789793,7.680000,22.519719

5.344034,7.658209,8.052714,17.591763,0.371105,0.003743,1.060519,7.680000,22.519719

1.495238,2.683753,10.342353,17.594706,0.195772,0.039716,0.781000,7.676000,22.519719

-1.321305,0.806058,7.738966,17.603529,-0.408298,-0.132952,0.431934,7.676000,22.519719

1.291661,-2.640375,7.051596,17.582939,-0.217777,0.181474,0.234219,7.676000,22.519719

3.471129,7.145675,11.194981,17.577057,0.398018,0.473250,-0.035174,7.680000,22.519719

-2.178722,5.344620,15.484460,17.585880,-0.444803,0.316037,-0.018121,7.676000,22.519719

-1.771569,-4.292939,9.161609,17.597647,-0.366996,-0.128689,0.195316,7.664000,22.519719

1.753900,-6.182609,-0.720242,17.585880,-0.134108,-0.282704,0.183058,7.672000,22.519719

-3.553463,17.726870,17.206480,17.591763,0.788119,0.820984,0.370914,7.676000,22.519719

-3.915111,4.784185,4.448210,17.591763,0.226949,-0.078061,0.421276,7.676000,22.810900

-5.531749,2.017938,2.105881,17.600588,-0.525808,-0.328535,0.592078,7.676000,22.810900

-0.818351,1.601204,15.242563,17.594706,-0.063762,0.289391,0.546247,7.680000,22.810900

-2.657726,-0.482463,9.686118,17.606470,-0.122917,0.306711,0.147352,7.688000,22.810900

-2.741552,2.951995,1.487966,17.594706,-0.533802,0.001079,-0.204645,7.688000,22.810900

4.467457,-1.131513,16.713104,17.585880,-0.188200,0.198527,-0.221965,7.680000,22.810900

4.795575,1.287457,16.205360,17.597647,0.440918,0.410631,-0.152951,7.692000,22.810900

-0.609984,1.443133,9.760364,17.612352,0.228014,0.432748,-0.333346,7.692000,22.810900

-3.934271,-3.148119,7.073151,17.603529,-0.013933,0.228904,-0.601407,7.692000,22.810900

-3.524723,2.937625,5.128395,17.606470,-0.081615,0.219578,-0.530262,7.676000,22.810900

0.776732,8.946730,-1.951283,17.600588,-0.065094,0.078886,-0.390369,7.664000,22.810900

2.929855,-13.144931,21.206161,17.597647,-0.738711,-0.360511,-0.459383,7.656000,22.810900

-2.851722,0.228858,23.057512,17.612352,0.473693,0.634460,-0.255272,7.660000,22.810900

0.283358,1.445528,5.770260,17.591763,0.225350,0.016533,-0.410620,7.664000,22.810900

-7.019056,7.025924,4.596701,17.606470,0.165929,-0.046618,-0.694936,7.664000,22.810900

0.491725,5.236844,-1.441143,17.591763,-0.008604,-0.644826,-1.003765,7.648000,22.810900

2.153868,4.269256,14.227075,17.600588,-0.536999,-0.363708,-0.935018,7.640000,22.810900

3.286713,-2.683486,17.144209,17.588821,0.084924,-0.010379,-1.028546,7.656000,22.810900

-4.250414,4.932677,7.645561,17.591763,0.617316,0.177477,-0.974455,7.672000,22.810900

0.182767,7.392362,6.055268,17.591763,-0.141303,-0.603525,-0.768479,7.672000,22.810900

-0.502208,4.180641,7.082731,17.582939,0.145145,-0.333598,-0.422611,7.672000,22.810900

-1.074618,-0.947096,12.816408,17.618235,-0.070424,-0.389822,-0.091931,7.676000,22.810900

1.085690,-1.854809,15.007852,17.597647,0.261589,-0.383160,0.735435,7.672000,22.643624

-8.676410,3.201077,5.961862,17.594706,0.193641,-0.218220,1.523631,7.680000,22.643624

-5.620365,1.524564,10.510005,17.600588,-0.228702,-0.148940,1.795956,7.676000,22.643624

-4.707863,0.494705,12.121853,17.606470,0.026835,-0.331200,1.684042,7.676000,22.643624

-2.657726,-4.237853,17.754938,17.585880,0.322076,-0.242202,1.647003,7.676000,22.643624

2.661613,-1.682367,14.636623,17.615294,0.350054,-0.343724,1.771708,7.680000,22.643624

-2.758317,12.175216,-1.345343,17.594706,0.674339,0.229970,1.479665,7.672000,22.643624

-3.230135,1.366493,2.833966,17.612352,-0.099468,-0.101509,1.304333,7.672000,22.643624

-3.567833,-0.561498,12.945740,17.600588,-0.281728,-0.102842,1.249708,7.668000,22.643624

-0.861461,4.094420,8.467052,17.612352,-0.026191,0.360004,1.244112,7.672000,22.643624

-0.588429,2.801109,11.609319,17.600588,0.093184,0.229703,1.162575,7.672000,22.643624

1.329982,5.883500,7.295888,17.600588,0.306621,0.374393,0.960862,7.672000,22.643624

-1.589547,-0.065729,4.635021,17.594706,0.017776,-0.161463,0.775405,7.668000,22.643624

-1.266220,-1.766193,11.705119,17.606470,-0.491967,0.404503,0.935548,7.664000,22.643624

0.482145,1.766461,17.563337,17.600588,0.079062,0.513486,0.653898,7.668000,22.643624

-0.722550,2.990316,12.854729,17.621176,0.165396,0.324564,0.516403,7.668000,22.643624

2.630477,5.490716,3.308180,17.606470,0.174189,0.347746,0.406087,7.668000,22.643624

0.956359,2.470596,7.633585,17.615294,0.037494,0.469253,0.216366,7.668000,22.643624

-2.035021,2.003568,1.928649,17.621176,-0.088010,0.613676,-0.099925,7.672000,22.643624

-1.841024,-0.262121,7.168952,17.615294,-0.647581,0.539599,-0.424743,7.660000,22.643624

1.998192,-0.369897,19.702089,17.591763,-0.056035,0.566512,-0.679214,7.668000,22.643624

-0.487838,2.815479,11.010564,17.603529,-0.172745,0.656843,-1.084504,7.668000,22.643624

0.063016,-0.151950,11.218930,17.577057,0.117166,0.331492,-1.314994,7.668000,22.643624

2.470011,3.241793,6.742639,17.597647,-0.108261,0.478046,-1.407456,7.668000,22.643624

2.723883,6.127791,3.250700,17.603529,-0.157024,0.556653,-1.443429,7.664000,22.643624

1.598224,-2.465539,23.735302,17.597647,-0.341949,0.256083,-1.369618,7.664000,22.643624

3.435204,8.676092,14.775535,17.612352,0.454241,0.481510,-1.295275,7.668000,22.643624

-4.018097,1.639525,6.301955,17.629999,0.509665,0.360803,-1.260102,7.672000,22.643624

-0.720155,7.423497,2.745351,17.600588,-0.584430,0.069559,-0.791128,7.664000,22.643624

0.379159,3.196287,8.201205,17.612352,-0.187667,0.310708,-0.278721,7.664000,22.643624

-1.436266,1.388048,10.845307,17.609411,-0.088809,0.238497,-0.217968,7.668000,22.643624

-1.709298,0.173773,7.640771,17.603529,0.173923,0.086080,-0.165741,7.668000,22.643624

-3.007399,-0.642929,7.135422,17.591763,0.119564,0.057835,-0.122574,7.664000,22.643624

-3.857631,1.845496,9.269384,17.600588,-0.339551,0.179076,-0.090066,7.672000,22.643624

0.376764,1.799991,7.612031,17.606470,-0.046975,0.147100,-0.164942,7.668000,22.643624

1.789825,4.077655,10.387858,17.597647,0.076131,-0.045286,-0.318690,7.668000,22.643624

-2.312843,3.371124,11.503938,17.597647,0.111037,0.010405,-0.420479,7.672000,22.643624

2.230509,1.864656,9.446616,17.612352,0.119564,-0.005849,-0.502017,7.672000,22.643624

2.920275,1.986803,8.038344,17.606470,0.374835,0.192665,-0.345070,7.676000,22.643624

-6.032309,5.253609,9.008327,17.600588,-0.011802,0.437278,-0.309897,7.676000,22.643624

0.149237,-4.582736,11.008168,17.609411,-0.265741,-0.152670,-0.201180,7.664000,22.643624

-5.263507,5.215289,12.924184,17.612352,-0.405367,0.279532,-0.061021,7.656000,22.643624

5.892494,2.075418,5.894802,17.612352,0.316214,-0.092716,-0.333612,7.660000,22.643624

-4.655172,-0.302836,9.164003,17.597647,-0.251352,-0.008514,-0.498286,7.656000,22.643624

-3.155890,4.096815,8.270661,17.603529,-0.139704,0.114325,-0.581422,7.660000,22.643624

-1.596732,3.225028,6.900710,17.588821,0.132887,0.049841,-0.669355,7.664000,22.643624

-3.649264,1.019215,10.818962,17.612352,-0.113590,0.017866,-1.029346,7.668000,22.643624

-1.369205,0.324659,7.161767,17.609411,0.131022,-0.024235,-1.286749,7.676000,22.643624

-6.726864,2.918465,9.494516,17.609411,0.021240,-0.134018,-1.484464,7.680000,10.933172

-0.921337,3.344779,12.689472,17.600588,0.265053,-0.410339,-1.548148,7.684000,10.933172

2.489171,5.517062,11.889536,17.588821,0.282373,-0.326137,-1.478069,7.680000,10.933172

1.488053,2.537657,12.699053,17.588821,0.352452,-0.260055,-1.164709,7.680000,10.933172

-2.046996,0.157008,9.475356,17.582939,0.444116,-0.539840,-1.009628,7.680000,10.933172

-5.138966,1.330567,9.405901,17.606470,0.418802,-0.640297,-0.883324,7.676000,10.933172

-5.699400,4.345897,9.180769,17.600588,0.610921,-0.688793,-0.467643,7.676000,10.933172

1.124010,-4.472565,4.675736,17.594706,0.452642,-0.875849,-0.221965,7.676000,10.933172

-5.433554,7.076219,10.258528,17.606470,0.923215,-0.427659,0.166005,7.680000,10.933172

-2.276918,4.166270,10.569880,17.594706,0.413472,-0.793246,0.564366,7.688000,10.933172

2.290385,-0.499228,0.781435,17.603529,0.362312,-1.020805,1.024547,7.680000,10.933172

-2.494864,10.750179,1.861589,17.600588,0.465166,-0.532912,1.408253,7.672000,10.933172

-4.312685,-1.291979,16.595749,17.612352,-0.014466,-0.773528,1.791160,7.672000,10.933172

-8.798556,3.483690,9.480146,17.600588,0.355384,-0.764468,1.983013,7.680000,10.933172

-1.891320,4.817716,3.736889,17.606470,-0.197260,-0.603791,2.123438,7.676000,10.933172

5.593116,1.282667,12.002102,17.594706,-0.568175,-0.831350,2.284648,7.672000,10.933172

-0.475863,1.615574,16.950212,17.606470,0.130489,-0.350918,2.391766,7.668000,10.933172

-0.571664,1.246742,12.212864,17.603529,0.262122,-0.277375,2.262798,7.676000,10.933172

0.898878,-1.948215,10.282477,17.615294,-0.019796,-0.160131,2.212970,7.676000,10.933172

-2.116452,1.941297,11.283596,17.612352,0.116367,0.025860,2.066149,7.676000,10.933172

-1.031508,3.136412,11.329102,17.615294,0.198171,0.224907,2.024314,7.680000,10.933172

1.559904,3.696846,9.398716,17.606470,0.207497,0.122852,1.644339,7.684000,10.933172

3.542980,2.326895,13.458274,17.621176,0.152872,0.293921,1.310728,7.684000,10.933172

2.031722,-0.954281,8.136540,17.609411,0.523521,0.623802,0.993637,7.688000,22.596348

0.209112,3.354359,3.303390,17.629999,0.372704,0.750105,0.664023,7.700000,22.596348

-0.092660,3.984249,5.643324,17.621176,0.327671,0.583566,0.413015,7.700000,22.596348

1.691630,-1.931449,21.294777,17.621176,-0.079483,0.534537,0.478565,7.692000,22.596348

5.787113,3.936348,12.409255,17.624117,0.760140,0.843633,0.499083,7.700000,22.596348

-1.946405,9.552670,-6.700606,17.621176,0.963451,1.330194,0.035438,7.700000,22.596348

-5.213212,5.723033,2.817201,17.621176,-0.668632,0.405036,-0.171603,7.684000,22.596348

3.416044,-9.173988,26.503944,17.618235,0.120897,0.673097,0.260599,7.692000,22.596348

6.620580,11.126197,7.343788,17.621176,0.390823,0.974999,-0.024249,7.696000,22.596348

-6.530472,7.054664,2.386098,17.627058,0.230146,0.641122,-0.307233,7.688000,22.596348

0.122892,2.195169,7.916198,17.615294,-0.196194,0.522546,-0.479900,7.676000,22.596348

-1.206344,0.267179,12.536191,17.618235,-0.341416,0.510022,-0.686942,7.672000,22.596348

1.389857,0.418065,9.714858,17.621176,-0.092540,0.398641,-0.837226,7.672000,22.596348

0.764757,0.820428,5.432563,17.615294,-0.381119,0.247024,-0.932620,7.672000,22.596348

-1.632658,1.603599,17.958515,17.621176,-0.001943,0.832442,-1.307533,7.676000,22.596348

1.356327,1.550909,10.759087,17.618235,0.010581,0.086347,-1.768246,7.684000,22.596348

3.442389,8.628192,3.121369,17.629999,-0.072822,0.210785,-1.845254,7.680000,22.596348

3.739371,-3.121774,13.829502,17.629999,0.125959,0.288858,-1.675784,7.680000,22.596348

-0.193251,4.805741,11.276411,17.615294,0.389757,0.326962,-1.660862,7.688000,22.596348

-2.844537,3.974669,1.887934,17.632940,0.149941,-0.099911,-1.787165,7.676000,22.596348

2.371815,1.689820,9.183164,17.629999,-0.066160,-0.385825,-1.462081,7.680000,22.596348

-0.483048,-2.216457,15.256933,17.618235,-0.217511,-0.116165,-1.139128,7.680000,22.596348

-3.395392,4.465648,5.674459,17.618235,0.282106,-0.473758,-1.169772,7.676000,22.730061

-4.200119,9.004210,7.010880,17.612352,0.075065,-0.602992,-0.934219,7.676000,22.730061

5.387145,1.874237,9.032277,17.606470,-0.078684,-0.503868,-0.409821,7.676000,22.730061

1.583854,-2.477514,21.189396,17.621176,-0.037915,-0.219019,-0.129236,7.688000,22.730061

0.400714,7.442657,10.727951,17.603529,0.388958,-0.005849,0.044231,7.696000,22.730061

3.018471,2.961576,-0.004132,17.621176,0.299693,-0.545969,0.597674,7.688000,22.730061

-3.936666,0.202513,11.463223,17.609411,-0.442672,-0.418067,1.204676,7.680000,22.730061

-2.329608,-2.185322,15.362314,17.615294,0.198437,-0.317877,1.199346,7.684000,22.730061

-3.905531,-0.185480,0.905976,17.603529,0.155270,-1.179084,0.905705,7.692000,22.730061

-1.524882,3.692056,0.122804,17.615294,-0.591891,-0.162529,1.389601,7.672000,22.730061

-0.643515,-5.284477,15.038986,17.609411,-0.355272,-0.115365,1.471138,7.676000,22.730061

-1.855394,6.206827,14.991086,17.609411,0.398550,0.239296,1.337374,7.676000,22.730061

-0.107030,-2.851137,9.482541,17.609411,0.198704,-0.230477,0.904639,7.676000,22.730061

-1.694928,5.349410,2.917792,17.609411,-0.008871,0.007740,0.687472,7.680000,22.730061

-1.841024,1.639525,8.641890,17.609411,-0.354739,0.147633,0.490823,7.672000,22.730061

1.605409,2.207144,14.104929,17.597647,0.345524,0.241161,0.432201,7.684000,22.730061

-0.849486,10.283151,3.092629,17.600588,0.208829,0.431149,0.551843,7.684000,22.730061

-3.529513,0.794083,13.166081,17.618235,-0.299315,0.062631,0.535055,7.676000,22.730061

0.503700,0.837193,9.978311,17.606470,0.489414,0.204656,0.510807,7.692000,22.730061

-8.218962,5.164994,6.110353,17.618235,-0.484240,0.688552,0.470571,7.688000,22.730061

-2.789452,11.571671,3.868615,17.615294,0.229880,0.031189,-0.197983,7.684000,22.730061

-3.043324,-11.954606,16.224522,17.615294,-0.922304,-0.449509,-0.370384,7.676000,22.730061

1.310822,7.777960,8.778405,17.609411,0.361246,0.641921,-0.353597,7.684000,22.730061

1.981427,-6.862794,13.918118,17.615294,-0.343281,-0.204364,-0.403159,7.676000,22.730061

-1.299750,4.389007,11.183005,17.609411,0.329270,0.363734,-0.515340,7.684000,22.380199

-0.277076,0.408485,2.613625,17.629999,-0.374724,0.065296,-0.715720,7.676000,22.380199

-2.933153,5.481136,8.615544,17.621176,-0.191397,0.131912,-0.915566,7.672000,22.380199

2.168238,1.028795,13.956438,17.629999,-0.007005,-0.104973,-0.995772,7.668000,22.380199

6.052960,6.465489,13.407978,17.632940,0.451843,0.241161,-1.053061,7.680000,22.380199

-3.929481,2.633458,0.498823,17.621176,0.622379,0.061566,-1.271294,7.684000,22.380199

-3.290011,6.209222,6.158254,17.618235,-0.370727,-0.090052,-1.182562,7.684000,22.380199

4.081859,3.397469,10.045371,17.632940,-0.086678,-0.231543,-1.053061,7.676000,22.380199

1.727555,1.409603,9.561577,17.638823,0.083059,-0.114833,-1.016023,7.680000,22.380199

-2.430199,5.775723,1.852009,17.618235,0.190976,-0.047418,-0.979251,7.676000,22.380199

-1.314120,-1.026132,20.231388,17.629999,-0.631860,-0.549966,-0.516672,7.684000,22.380199

0.930013,6.781632,10.665681,17.627058,1.173690,0.056769,-0.002399,7.688000,22.380199

-2.327213,6.791212,2.084326,17.624117,-0.124515,-0.390355,-0.018387,7.688000,22.380199

-0.669860,-0.118420,13.340918,17.629999,-0.502626,-0.147341,0.413815,7.680000,22.380199

-0.483048,-1.864389,13.609159,17.632940,0.300226,-0.255525,1.062118,7.684000,22.380199

-4.434831,2.769974,10.418994,17.621176,0.231478,-0.342125,0.922758,7.696000,22.380199

-4.784503,3.929163,4.328459,17.624117,-0.066693,-0.108437,0.893714,7.688000,22.380199

-2.020651,-0.580658,8.529324,17.621176,-0.172212,-0.177718,1.005362,7.684000,22.380199

0.079781,1.514984,9.331655,17.612352,-0.085079,0.114858,1.149518,7.680000,22.380199

1.698815,2.257440,7.875483,17.638823,0.040958,0.170016,1.146054,7.684000,22.380199

-0.497418,1.172496,9.932805,17.629999,0.120097,0.251020,0.772740,7.688000,22.380199

-1.651818,2.341265,8.713739,17.624117,-0.130910,0.272071,0.476967,7.680000,22.380199

-4.190538,6.520575,8.773615,17.629999,0.124361,0.323765,0.050627,7.692000,22.380199

-3.074459,-1.406940,8.435918,17.644705,-0.012068,-0.020771,-0.136963,7.684000,22.294429

1.864071,3.045401,7.065966,17.635881,-0.071489,-0.019173,-0.121242,7.684000,22.294429

-2.636171,5.564962,10.174702,17.638823,-0.074154,0.452999,-0.035974,7.688000,22.294429

-3.148705,4.575819,9.051437,17.624117,-0.120252,0.168950,0.060486,7.684000,22.294429

-4.997660,-0.568683,11.424902,17.632940,-0.329958,-0.220085,0.251273,7.680000,22.294429

2.810104,0.180958,16.626884,17.629999,-0.097869,-0.074330,0.491355,7.684000,22.294429

1.732345,1.886212,11.218930,17.624117,0.009515,0.098604,0.776204,7.692000,22.294429

-3.903136,5.093143,-0.495111,17.629999,0.170192,0.159890,0.579288,7.684000,22.294429

-3.428922,-4.982704,8.419152,17.627058,-0.533002,-0.193172,0.561169,7.680000,22.294429

2.151473,8.642562,-1.242357,17.612352,0.571218,0.229437,0.641374,7.684000,22.294429

-3.239716,1.586834,14.936001,17.624117,-0.429082,0.218512,0.391166,7.676000,22.294429

4.747674,1.364097,11.463223,17.615294,0.597331,-0.204897,-0.002399,7.696000,22.294429

-4.262389,2.707703,8.684999,17.624117,0.108906,0.171881,-0.606203,7.692000,22.294429

0.424664,5.107513,4.567961,17.635881,0.315414,-0.010113,-1.162844,7.696000,22.294429

4.927301,4.250096,8.126960,17.606470,0.102244,-0.116698,-1.175900,7.684000,22.294429

2.508331,7.569593,8.984377,17.621176,0.059344,0.288059,-1.156182,7.684000,22.294429

1.507213,0.710257,9.427456,17.624117,0.018042,-0.176652,-1.195618,7.688000,22.294429

0.659376,8.934754,8.924501,17.638823,-0.027257,0.055703,-1.009628,7.680000,22.294429

2.345470,1.474268,4.682922,17.635881,-0.288123,-0.246199,-0.778605,7.680000,22.294429

-3.455267,-1.406940,17.821999,17.624117,-0.161287,-0.000787,-0.523067,7.672000,22.294429

-2.693651,-0.211825,15.769467,17.632940,0.071068,-0.218486,-0.542785,7.680000,22.294429

-1.318910,7.940822,5.396637,17.644705,0.347123,-0.131620,-0.410087,7.688000,22.294429

0.757572,2.350845,1.681962,17.627058,-0.169281,-0.405543,0.070878,7.676000,22.294429

-1.572782,4.822506,7.307863,17.621176,-0.037649,-0.162796,0.495885,7.692000,22.294429

-2.995424,6.525365,4.488925,17.624117,-0.014733,-0.084189,0.412483,7.696000,22.294429

0.616266,-5.255736,17.175344,17.629999,-0.418157,-0.428725,0.487625,7.692000,22.294429

0.043856,4.664434,17.584892,17.635881,0.511797,0.247556,0.726109,7.696000,22.294429

0.233063,-4.292939,7.956913,17.615294,0.101445,-0.125225,0.802051,7.696000,22.294429

-7.016661,3.023846,8.687394,17.627058,0.076664,0.226772,0.891582,7.700000,22.294429

-3.139125,1.474268,9.654983,17.653528,0.325806,-0.136682,1.055457,7.696000,22.294429

2.017352,5.454791,6.989326,17.629999,0.151007,0.140439,1.545748,7.688000,22.294429

0.070201,2.528077,8.838281,17.632940,0.126759,0.332824,1.521500,7.692000,22.294429

-4.789293,0.909044,11.058464,17.635881,-0.340084,0.479912,1.342703,7.688000,22.294429

-2.025441,-0.008249,10.495634,17.638823,-0.150096,0.265409,0.930486,7.684000,22.294429

2.664008,4.927886,8.639494,17.656469,-0.163685,0.342950,0.549977,7.688000,22.294429

0.728832,3.555540,8.934082,17.659410,0.027635,0.579302,0.292308,7.692000,22.294429

0.798287,0.679122,8.605964,17.644705,-0.100267,0.636059,0.035971,7.700000,22.294429

-3.345096,5.739799,7.518625,17.644705,0.009515,0.771688,-0.156148,7.696000,22.294429

-0.727340,8.855719,7.338998,17.641764,-0.030188,0.515085,-0.410620,7.696000,22.294429

2.520306,3.871683,8.895761,17.644705,-0.524209,0.286460,-0.658430,7.692000,22.294429

3.633990,-1.818883,14.459392,17.641764,-0.043244,0.669633,-0.859876,7.696000,22.294429

-2.628986,2.017938,9.329260,17.653528,-0.044044,0.689884,-1.220666,7.692000,22.294429

2.041302,-0.506413,11.034513,17.650587,-0.056567,0.078886,-1.514574,7.692000,22.294429

0.201927,-0.590238,13.477434,17.647646,-0.066160,0.441275,-1.753857,7.692000,22.294429

1.294056,7.653419,6.323510,17.641764,0.293831,0.542264,-1.853514,7.696000,22.294429

0.352814,5.038058,3.389611,17.653528,0.173656,0.070625,-2.011527,7.696000,22.294429

0.985099,-1.076427,14.349221,17.644705,0.097714,0.021330,-1.808482,7.700000,22.294429

-0.612379,3.258558,9.633428,17.647646,0.308220,0.068494,-1.525499,7.712000,22.294429

-1.491351,5.186549,3.324945,17.647646,0.416670,-0.235540,-1.237986,7.708000,22.294429

-4.197723,2.199959,7.870693,17.641764,-0.034984,-0.161463,-0.998969,7.708000,22.294429

-3.342701,4.585399,9.274175,17.650587,0.205365,-0.151604,-1.046932,7.716000,22.294429

-1.886530,4.515944,12.346985,17.647646,0.147543,-0.465497,-0.878795,7.720000,22.294429

-1.196764,5.380546,5.827741,17.635881,0.298627,-0.351984,-0.711989,7.720000,22.294429

-1.007557,-4.280963,9.377160,17.650587,-0.261211,-0.538508,-0.634182,7.712000,22.294429

-3.783385,-2.254777,17.719013,17.632940,0.098247,-0.175053,-0.576626,7.704000,22.294429

-0.997977,-2.518229,18.471050,17.638823,0.468097,-0.505200,-0.400228,7.712000,22.294429

-0.835116,-5.646124,18.590801,17.644705,0.432391,-0.698119,-0.142026,7.704000,22.294429

-4.813243,-0.846506,8.955637,17.621176,1.203800,0.364533,0.387702,7.716000,22.294429

-5.960458,8.041412,-6.291058,17.635881,-0.236696,-0.861460,0.703193,7.696000,22.294429

4.347706,5.964930,3.571633,17.632940,0.338863,-1.463666,1.048262,7.688000,22.294429

-2.808612,-3.495397,11.779365,17.629999,0.122229,-0.464698,1.338173,7.696000,22.294429

-4.125873,4.700360,10.950688,17.627058,0.493145,-0.369304,1.199080,7.692000,22.294429

-2.315238,-0.099259,8.536509,17.621176,0.166995,-0.459102,1.178029,7.692000,22.294429

-3.903136,-0.013039,7.224037,17.618235,0.100912,-0.294428,1.138593,7.692000,22.294429

-4.331845,2.367611,9.520862,17.629999,0.031365,-0.231010,1.032008,7.692000,22.294429

-2.770292,6.412799,17.331020,17.621176,-0.062963,-0.203831,0.971254,7.692000,22.294429

6.907982,4.982972,8.620334,17.629999,0.086789,-0.406609,0.951536,7.696000,22.294429

-4.324659,11.315404,13.518149,17.624117,-0.050439,0.248356,1.142590,7.684000,22.294429

-1.330885,0.372559,6.869575,17.624117,0.244802,-0.461500,1.115677,7.680000,7.659315

-0.499813,3.857313,5.250541,17.621176,0.204832,0.264344,1.284614,7.688000,7.659315

-4.904254,-2.302677,8.718530,17.629999,-0.147698,-0.134018,0.872397,7.692000,7.659315

-2.573900,3.292088,6.349855,17.656469,-0.014733,0.020530,0.391166,7.696000,7.659315

-1.912875,1.162916,9.820239,17.629999,-0.157024,0.056503,0.197181,7.700000,7.659315

1.135985,0.461175,13.525334,17.632940,-0.082148,-0.124159,0.011457,7.704000,7.659315

3.475919,0.619246,12.030842,17.641764,0.067604,0.168684,-0.055159,7.704000,7.659315

1.744320,3.031031,11.479987,17.656469,0.379099,0.143370,0.043166,7.704000,7.659315

2.661613,4.269256,8.773615,17.647646,0.398550,-0.004251,0.216899,7.700000,7.659315

-0.063920,2.609508,7.161767,17.638823,-0.019796,0.189734,0.269392,7.700000,7.659315

-1.232689,6.261912,9.049043,17.644705,-0.078684,0.213716,0.109248,7.688000,7.659315

0.070201,1.888607,9.386741,17.647646,0.006051,0.042647,-0.024516,7.688000,7.659315

0.613871,2.183194,9.013118,17.659410,-0.139171,0.095939,-0.104455,7.684000,7.659315

-0.183671,3.316038,9.686118,17.653528,-0.172745,0.062898,-0.179331,7.688000,7.659315

-0.456703,1.332962,9.604687,17.641764,-0.112791,0.114059,-0.194785,7.684000,7.659315

0.839003,5.505086,8.634704,17.644705,-0.086678,0.089278,-0.241150,7.692000,7.659315

2.594552,2.480176,8.974797,17.650587,0.078529,0.098870,-0.282185,7.696000,7.659315

1.696420,5.366175,8.172465,17.656469,0.176854,0.177477,-0.413551,7.700000,7.659315

1.102455,2.204749,9.475356,17.656469,-0.065094,0.127915,-0.431671,7.700000,7.659315

1.121615,0.626431,9.044252,17.656469,-0.215912,0.098604,-0.354663,7.700000,7.659315

1.555114,2.096973,9.990285,17.659410,-0.087744,0.236099,-0.367986,7.700000,7.659315

-1.800309,1.732930,11.733860,17.653528,-0.038981,0.289658,-0.402893,7.696000,7.659315

-1.814679,1.742511,9.381950,17.656469,0.079328,0.182007,-0.384240,7.692000,7.659315

1.157540,1.071905,9.142448,17.659410,0.023371,0.023461,-0.299239,7.688000,22.692543

0.645006,0.415670,9.389135,17.671175,-0.141036,0.095406,-0.146023,7.692000,22.692543

-1.201554,0.743787,9.065807,17.641764,-0.024858,0.081017,-0.092197,7.688000,22.692543

-2.394274,3.117252,8.953242,17.671175,-0.045110,0.180674,-0.083138,7.688000,22.692543

-1.402736,3.191497,8.285031,17.659410,0.055347,0.053838,-0.104188,7.688000,22.692543

-1.184789,2.992711,9.638218,17.668234,0.011380,0.017866,-0.126305,7.688000,22.692543

-1.112938,4.288416,10.749507,17.677057,-0.031520,-0.049016,-0.087667,7.696000,22.692543

-1.211134,5.500297,8.840676,17.668234,0.160599,-0.045819,0.068746,7.696000,22.692543

-1.517697,1.244346,10.093271,17.662352,0.075065,-0.185978,0.167604,7.692000,22.692543

-4.248019,0.803663,10.148356,17.653528,-0.086411,-0.110836,0.258734,7.692000,22.692543

-4.269574,0.233648,8.392807,17.668234,-0.089076,-0.357047,0.293107,7.696000,22.692543

-4.954550,2.386771,9.729228,17.665293,0.095050,-0.182248,0.345334,7.700000,22.692543

-2.813402,1.184471,8.045529,17.662352,0.074799,-0.265384,0.447656,7.692000,22.692543

-2.688861,1.210816,10.265713,17.677057,-0.007272,-0.457770,0.590213,7.688000,22.692543

-3.951036,1.773646,8.790380,17.674116,0.044422,-0.154269,0.826565,7.696000,22.692543

-4.097133,2.044283,9.022697,17.653528,0.013246,-0.312281,0.880924,7.692000,22.692543

-3.426527,1.457503,11.669194,17.674116,0.154737,-0.315479,0.901175,7.696000,22.692543

-2.772687,1.320987,7.693461,17.682940,0.174189,-0.282171,0.939545,7.692000,22.692543

-0.849486,1.249136,8.438313,17.674116,0.047886,-0.326937,1.120207,7.688000,22.692543

0.805472,1.871841,9.583132,17.685881,-0.024059,-0.346122,1.361089,7.696000,22.692543

0.848583,3.859708,9.851375,17.668234,0.088122,-0.123626,1.530559,7.696000,22.692543

0.587526,2.750814,8.855046,17.668234,0.232811,-0.040223,1.483928,7.696000,22.692543

-0.557294,3.416629,8.965217,17.662352,-0.035517,0.050374,1.327248,7.696000,22.234241

0.973124,4.822506,9.453801,17.688822,0.031898,0.187869,1.093827,7.700000,22.234241

1.452128,3.852523,10.325588,17.668234,0.134753,0.286993,0.767944,7.704000,22.234241

3.140616,2.767579,9.398716,17.674116,-0.014466,0.378123,0.519334,7.704000,22.234241

1.109640,3.545960,9.410690,17.677057,0.084924,0.522279,0.372513,7.704000,22.234241

2.240089,1.802386,7.928173,17.668234,0.218688,0.410631,0.336807,7.704000,22.234241

1.591039,2.276600,5.921147,17.656469,-0.057900,0.506558,0.260599,7.700000,22.234241

1.162330,3.795042,3.887775,17.674116,0.056946,0.455397,0.245411,7.704000,22.234241

3.061581,-2.585290,16.334692,17.653528,-0.242292,0.472184,0.185457,7.700000,22.234241

3.210072,1.122200,14.277370,17.668234,0.158201,0.595556,0.120973,7.700000,22.234241

0.041461,6.228382,2.383703,17.656469,0.093184,0.491370,0.066081,7.688000,22.234241

3.981268,0.487520,-0.281954,17.656469,-0.592423,0.322699,0.088731,7.684000,22.234241

0.623451,-8.999152,24.116110,17.650587,-0.288656,0.689085,0.402623,7.676000,22.234241

4.292621,9.868812,12.521821,17.644705,0.328737,0.776484,0.054623,7.688000,22.234241

-5.057536,0.913834,5.868456,17.656469,0.221619,0.771155,-0.059156,7.684000,22.234241

-4.964129,2.882540,10.208232,17.653528,-0.395241,0.462592,-0.225695,7.688000,22.234241

-1.160839,4.108790,9.786709,17.656469,-0.063229,0.653112,-0.545450,7.688000,22.234241

3.102296,1.728140,8.440707,17.656469,-0.089342,0.458328,-0.767680,7.684000,22.234241

0.520465,-0.971047,7.264753,17.638823,0.060143,0.536935,-0.839092,7.700000,22.234241

-1.807494,-3.102614,6.421706,17.650587,0.074799,0.549725,-0.953671,7.700000,22.234241

-3.167865,18.411846,7.968888,17.632940,0.642097,0.893994,-1.177233,7.704000,22.234241

-1.354835,0.283944,13.448693,17.647646,-0.346212,-0.070866,-1.335511,7.700000,22.234241

5.032682,0.703072,8.222761,17.653528,0.117166,0.203590,-1.633683,7.704000,22.234241

0.673746,1.208421,8.665839,17.647646,0.218155,0.339486,-1.756522,7.708000,22.234241

0.125287,2.274205,13.920512,17.656469,0.015910,0.120187,-1.835928,7.696000,22.234241

2.297570,-2.951728,17.515436,17.641764,-0.079217,0.006141,-1.861775,7.700000,22.234241

-0.336952,2.192774,10.308823,17.641764,0.004985,0.653645,-1.729876,7.704000,22.234241

-2.348768,-0.475278,6.306745,17.632940,-0.003808,-0.209427,-1.291811,7.700000,22.234241

-1.989516,0.446805,8.680209,17.644705,0.131555,-0.323473,-1.024283,7.700000,22.234241

0.733622,2.571187,8.222761,17.665293,0.182716,-0.442581,-0.768213,7.692000,22.234241

-1.912875,4.674015,1.432880,17.632940,0.242403,-0.363442,-0.335744,7.692000,22.234241

-0.811166,-0.238171,13.146921,17.647646,-0.473848,-0.616048,-0.103389,7.684000,22.234241

-0.962052,0.657567,16.674784,17.632940,0.955724,0.167351,0.433000,7.696000,22.234241

-6.856195,-0.801000,8.325747,17.621176,0.211760,-0.258456,0.127368,7.700000,22.234241

-2.494864,6.522970,9.496911,17.621176,0.113969,-0.254725,-0.139894,7.700000,22.234241

-0.808771,5.723033,13.556469,17.629999,0.325273,-0.302689,-0.502017,7.704000,22.234241

2.323915,-2.532599,13.752861,17.618235,0.443849,-0.261653,-0.934219,7.708000,22.234241

-1.065038,0.286339,12.052397,17.632940,0.309552,0.121520,-0.876396,7.712000,22.234241

-4.389325,6.697806,-2.545247,17.650587,-0.065094,-0.341592,-0.379977,7.700000,22.234241

1.514398,-2.554155,8.392807,17.632940,-0.134375,-0.447911,-0.006396,7.700000,22.234241

-0.815956,4.774605,11.441668,17.632940,0.625843,-0.129222,0.192385,7.700000,22.234241

-2.300868,-3.057109,11.664404,17.624117,0.119031,-0.252061,0.469772,7.700000,22.234241

-1.788334,-0.731545,7.772497,17.638823,0.140615,-0.185445,0.961662,7.704000,22.234241

-2.935548,1.895792,7.451564,17.621176,0.207497,0.022129,1.405855,7.700000,22.234241

-5.488639,0.556976,10.253737,17.629999,0.174722,-0.055145,1.574792,7.692000,22.234241

-3.826495,1.225186,9.614267,17.627058,0.174189,-0.175852,1.487925,7.680000,22.234241

-3.194210,5.430841,7.480304,17.629999,0.100112,-0.098045,1.339239,7.688000,11.351828

-0.387247,2.453831,8.538903,17.656469,-0.045376,-0.104707,1.062918,7.684000,11.351828

-0.111820,2.525682,9.851375,17.612352,-0.270004,0.096739,0.658694,7.680000,11.351828

0.252223,4.022569,11.575788,17.638823,-0.405367,0.246757,0.537720,7.672000,11.351828

2.781363,2.386771,11.003379,17.621176,-0.135973,0.124717,0.286712,7.664000,11.351828

3.844752,-1.102773,10.785432,17.629999,-0.232699,0.170549,0.150550,7.664000,11.351828

-0.411198,2.621483,9.635822,17.615294,-0.536200,0.299783,0.128434,7.668000,11.351828

-2.686466,3.074141,8.919712,17.612352,0.022305,0.536668,-0.115646,7.668000,11.351828

-1.726063,4.283627,7.944938,17.621176,-0.061630,0.315238,-0.533193,7.668000,11.351828

0.017511,2.640643,8.421547,17.632940,-0.232433,0.128714,-0.785000,7.672000,11.351828

0.774337,0.741392,8.670630,17.618235,-0.017397,0.257149,-0.908372,7.672000,11.351828

-0.736920,1.728140,8.057505,17.632940,-0.238295,0.293122,-1.090632,7.676000,11.351828

-1.160839,-0.875246,12.670312,17.621176,-0.132509,0.309376,-1.365355,7.672000,11.351828

1.325192,1.124595,14.167199,17.609411,-0.118920,0.370396,-1.576660,7.668000,11.351828

0.374369,2.786739,9.312495,17.635881,0.130223,0.334157,-1.614231,7.668000,11.351828

-3.610944,0.111502,7.930568,17.644705,-0.182071,0.195863,-1.668856,7.672000,11.351828

1.907181,4.666830,10.258528,17.638823,-0.175410,0.074356,-1.762118,7.668000,11.351828

-2.420619,0.607271,11.135105,17.627058,0.219221,0.182806,-1.738935,7.668000,11.351828

0.283358,-0.944701,9.190349,17.624117,0.081993,-0.200367,-1.619294,7.668000,11.351828

-2.082921,1.517379,8.811935,17.638823,0.339129,-0.036493,-1.608902,7.672000,11.351828

-2.863698,0.578531,10.287268,17.635881,0.081727,-0.180116,-1.390935,7.672000,11.351828

-1.951195,6.357713,13.041540,17.624117,0.343926,-0.304820,-1.122874,7.676000,11.351828

0.393529,4.396193,9.547207,17.606470,0.500339,-0.178251,-0.728510,7.680000,11.351828

0.055831,0.985684,9.839399,17.618235,0.316214,-0.308551,-0.469508,7.680000,11.351828

-4.166588,3.596256,9.003537,17.609411,0.468897,-0.213957,-0.184660,7.688000,11.351828

-2.818192,-0.458512,9.348420,17.624117,0.198970,-0.310416,0.087398,7.680000,11.351828

-3.764225,2.528077,12.093113,17.632940,0.217622,-0.262986,0.191319,7.684000,20.311476

-1.378785,3.292088,9.913645,17.629999,0.366308,-0.243534,0.195049,7.680000,20.311476

-1.699718,2.092183,10.881232,17.621176,0.005252,-0.190774,0.232620,7.676000,20.311476

0.106127,1.119806,9.348420,17.624117,0.195240,-0.052480,0.229689,7.672000,20.311476

-1.362020,1.301827,10.495634,17.627058,0.097181,-0.030630,0.174798,7.668000,20.311476

-0.710575,1.917347,8.562854,17.615294,0.207763,-0.017840,0.088464,7.664000,20.311476

0.302518,1.591624,9.192744,17.624117,0.093984,-0.058875,0.030109,7.664000,20.311476

-0.447123,2.381981,9.683722,17.618235,0.098514,0.050907,-0.089533,7.660000,20.311476

-0.346532,1.179681,8.198811,17.638823,0.182716,0.051707,-0.189190,7.668000,20.311476

-1.558412,1.050350,9.801079,17.635881,-0.065094,-0.044486,-0.274458,7.656000,20.311476

-1.534462,5.744588,9.456196,17.632940,0.159267,0.119654,-0.385839,7.660000,20.311476

1.013839,0.097132,8.622729,17.632940,0.217622,0.002144,-0.549713,7.660000,20.311476

0.079781,0.236043,10.883628,17.629999,-0.037116,-0.048750,-0.657897,7.656000,20.311476

-3.191815,3.780672,9.745994,17.647646,0.162465,0.223042,-0.873998,7.664000,20.311476

-2.638566,1.895792,6.871969,17.632940,0.185647,0.035985,-1.026681,7.656000,20.311476

-0.492628,2.319710,9.559182,17.635881,-0.095205,-0.074597,-1.152718,7.656000,20.311476

-1.108148,1.953272,10.050160,17.638823,-0.012335,0.051174,-1.199615,7.660000,20.311476

-2.329608,1.589229,11.190190,17.624117,0.050284,-0.017041,-1.225729,7.660000,20.311476

-1.541647,2.722074,10.795012,17.653528,0.203766,-0.187310,-1.296608,7.660000,20.311476

-1.373995,2.731653,9.846584,17.638823,0.241071,-0.351451,-1.457818,7.652000,20.311476

-3.476823,-0.350737,10.701606,17.644705,0.331935,-0.318676,-1.551612,7.660000,20.311476

-2.566715,-0.266911,9.276569,17.647646,0.286370,-0.342658,-1.619560,7.664000,20.311476

-0.128585,2.597533,9.372371,17.647646,0.206431,-0.356248,-1.499652,7.660000,20.311476

-0.674650,3.110067,9.863349,17.638823,0.466232,-0.366373,-1.452488,7.668000,20.311476

-2.863698,0.988079,8.308981,17.644705,0.451310,-0.414336,-1.358161,7.660000,20.311476

-2.406249,-0.515993,10.241762,17.638823,0.412939,-0.525984,-1.147389,7.660000,20.311476

-3.421737,-0.003459,11.257251,17.644705,0.560560,-0.560091,-0.863340,7.660000,19.707044

-3.280431,3.186707,7.276728,17.644705,0.621047,-0.545702,-0.469242,7.664000,19.707044

-2.334398,0.513866,6.256449,17.668234,0.420667,-0.770597,-0.016788,7.660000,19.707044

-2.293683,0.243228,13.113391,17.665293,0.383629,-0.766333,0.434865,7.648000,19.707044

-5.553305,2.659803,10.160332,17.662352,0.558161,-0.636566,0.713852,7.648000,19.707044

-3.972592,0.731812,6.974955,17.682940,0.553365,-0.563555,0.864403,7.644000,19.707044

-4.662357,3.876473,8.689790,17.674116,0.038826,-0.723166,1.051726,7.648000,19.707044

-0.744105,4.472833,7.128236,17.668234,0.505935,-0.646425,1.265429,7.644000,19.707044

-0.789611,2.307735,8.608358,17.674116,0.042557,-0.761270,1.461279,7.648000,19.707044

-1.467401,5.021293,9.240644,17.662352,0.267984,-0.540640,1.616627,7.644000,19.707044

-1.963170,4.063285,8.122169,17.665293,0.474492,-0.296826,1.888685,7.644000,19.707044

-1.563202,0.468360,5.281676,17.703527,0.067338,-0.288300,2.011257,7.648000,19.707044

-1.290170,-1.454840,10.538745,17.685881,0.029766,-0.353849,2.041634,7.648000,19.707044

-3.091224,6.348133,10.914762,17.677057,0.256526,0.073024,2.027245,7.648000,19.707044

-2.571505,-2.070361,9.379556,17.694704,0.090253,-0.254192,1.740265,7.640000,19.707044

-2.169142,3.145992,10.859677,17.715292,-0.175943,-0.106039,1.501515,7.640000,19.707044

3.056791,-0.360317,6.091193,17.700586,0.263454,0.116990,1.387735,7.652000,19.707044

-4.456386,-3.179255,13.027170,17.703527,-0.450665,0.086347,1.167904,7.636000,19.707044

-0.593219,4.774605,9.650192,17.706469,0.182449,0.007474,0.980048,7.636000,19.707044

2.448456,-2.044015,6.665998,17.709410,-0.296917,-0.147874,0.642706,7.632000,19.707044

-0.107030,5.586517,9.973520,17.715292,-0.210583,0.224108,0.328813,7.636000,19.707044

-0.425568,3.696846,10.426179,17.706469,0.150740,0.265942,0.161208,7.640000,19.707044

-1.663793,2.549632,14.162410,17.700586,0.204566,0.197994,-0.019187,7.648000,19.707044

2.675983,5.399705,6.716293,17.721176,0.132088,0.085814,-0.031710,7.648000,19.707044

2.072438,2.283785,10.122011,17.730000,0.032697,0.247024,0.117775,7.640000,19.707044

-0.612379,0.743787,10.023815,17.709410,0.213359,0.067694,0.185457,7.636000,19.707044

-2.454149,-2.094311,9.108918,17.732941,-0.135440,0.123651,0.326682,7.624000,19.707044

-2.681676,0.738997,9.779524,17.718235,0.021772,0.272870,0.355993,7.616000,18.353965

-2.288893,1.670660,7.595265,17.735882,-0.172212,-0.003718,0.404489,7.608000,18.353965

0.503700,1.838311,9.650192,17.738823,-0.181805,-0.037825,0.482562,7.612000,18.353965

0.666561,0.482730,13.427138,17.756470,-0.060831,0.061033,0.896911,7.600000,18.353965

0.063016,-0.147160,19.259010,17.738823,0.135552,0.187869,1.180161,7.604000,18.353965

4.814735,5.421261,8.009604,17.753529,0.327671,-0.342125,1.342703,7.624000,18.353965

1.603014,1.907767,2.546564,17.735882,0.328471,0.163088,1.304333,7.616000,18.353965

-7.874078,5.311090,8.538903,17.753529,-0.025125,0.638190,1.265695,7.624000,18.353965

-0.839906,3.713611,8.840676,17.759411,-0.185002,-0.040490,1.117809,7.612000,18.353965

-0.988397,-1.610517,11.580578,17.741764,0.041491,-0.035960,1.083968,7.616000,18.353965

-2.070946,-1.600937,14.104929,17.738823,0.286903,0.265143,1.086366,7.624000,18.353965

0.788707,-3.116984,13.386423,17.756470,-0.008338,-0.004251,1.183625,7.616000,18.353965

0.563575,6.978024,9.791499,17.756470,0.425996,0.280065,1.163374,7.628000,18.353965

1.955082,4.676410,5.559499,17.759411,0.311417,0.446870,1.091429,7.616000,18.353965

0.985099,2.621483,8.843071,17.768234,0.026569,0.293122,1.065849,7.616000,18.353965

-1.376390,-2.906222,10.663286,17.759411,0.265053,-0.085522,0.972853,7.608000,18.353965

-0.284262,-1.869179,9.951965,17.774117,-0.202322,0.644852,1.128734,7.612000,18.353965

-0.109425,7.708505,6.737848,17.774117,0.446780,0.781014,1.010424,7.612000,18.353965

-1.309330,0.422855,10.792617,17.762352,-0.162886,0.064230,0.810045,7.596000,18.353965

2.460431,0.703072,13.245117,17.756470,0.301825,0.156426,0.819637,7.592000,18.353965

4.345311,-1.162648,11.585368,17.782940,0.333800,0.251553,0.606201,7.596000,18.353965

-1.752409,4.942257,6.122328,17.759411,0.220021,0.658442,0.362388,7.596000,18.353965

0.455800,3.411839,6.960585,17.765293,-0.001410,0.478046,0.145487,7.592000,18.353965

3.622015,1.428763,10.660891,17.768234,0.174722,0.410365,-0.024782,7.596000,18.353965

1.926342,0.128267,8.680209,17.756470,0.225883,0.447936,-0.231557,7.588000,18.353965

-3.052904,-0.001064,8.572433,17.762352,0.123028,0.391446,-0.403958,7.580000,18.353965

1.545533,5.021293,8.665839,17.762352,-0.018730,0.340818,-0.630452,7.588000,18.353965

1.394647,-0.714779,10.761481,17.785881,0.029766,0.216913,-0.765282,7.568000,18.353965

0.755177,1.692215,11.386581,17.768234,0.123561,0.434080,-0.778338,7.572000,18.353965

-0.593219,0.535421,8.342512,17.777058,0.096915,0.357339,-0.634449,7.576000,18.353965

0.017511,4.508758,7.473119,17.738823,0.123028,0.320834,-0.545716,7.568000,18.353965

-0.586034,-0.762680,7.588080,17.771175,-0.187933,0.157226,-0.522534,7.544000,18.353965

0.712067,0.377349,8.895761,17.750587,0.047353,0.264876,-0.528130,7.544000,18.353965

-0.621959,-0.803395,9.796288,17.753529,0.016443,0.184938,-0.531594,7.520000,18.353965

-2.423014,-0.932726,9.650192,17.765293,-0.240959,0.238763,-0.419680,7.536000,15.528194

-2.332003,4.386612,11.053674,17.756470,0.018042,0.209985,-0.235288,7.524000,15.528194

-0.135770,0.760553,8.859837,17.791763,0.134220,-0.034627,-0.208109,7.508000,15.528194

-1.759594,-1.059662,8.289822,17.759411,-0.148497,0.111661,-0.197983,7.512000,15.528194

-2.861303,2.187984,11.848821,17.774117,-0.173811,-0.027166,-0.125505,7.504000,15.528194

2.304755,0.063602,7.305468,17.782940,0.025503,-0.060474,-0.074344,7.476000,15.528194

-1.273405,-2.685881,10.883628,17.777058,-0.203655,0.015201,-0.075943,7.480000,15.528194

-1.062643,2.463411,11.614109,17.782940,0.062808,0.084215,-0.018121,7.464000,15.528194

-0.159721,0.815638,8.919712,17.788822,0.099580,-0.014643,-0.029312,7.464000,15.528194

1.303637,2.283785,11.372211,17.791763,0.103843,-0.039424,-0.026648,7.472000,15.528194

0.886903,1.304222,8.376042,17.794704,0.102777,0.008007,0.003729,7.424000,15.528194

-0.305817,-0.583053,9.164003,17.800587,0.104109,0.018399,-0.073012,7.432000,15.528194

-0.648305,0.741392,9.880115,17.788822,-0.068558,-0.061007,-0.142292,7.404000,15.528194

0.690511,1.007240,10.282477,17.788822,0.188045,-0.035160,-0.100191,7.380000,15.528194

0.702486,-1.742243,10.725556,17.768234,-0.070690,-0.136150,-0.163609,7.316000,15.528194

0.668956,1.510194,10.545930,17.782940,-0.008871,-0.068468,-0.131367,7.224000,15.528194

0.096547,1.201236,9.334050,17.818233,0.025237,-0.131620,-0.077542,7.100000,15.528194

0.534835,-0.805790,9.796288,17.806469,-0.008871,-0.135084,-0.020519,6.960000,15.528194

-0.514183,-0.036989,10.526770,17.797646,-0.030188,-0.133751,0.092994,6.824000,15.528194

-0.715365,0.750972,10.203442,17.794704,0.105975,-0.089252,0.278185,6.644000,15.528194

0.846188,-0.551918,8.191626,17.812351,-0.012335,-0.194771,0.418878,6.492000,15.528194

0.115707,1.431158,9.633428,17.788822,-0.014466,-0.145476,0.492155,6.356000,15.528194

0.515675,-0.204640,10.100456,17.812351,0.056146,-0.087653,0.527594,6.220000,15.528194

1.516793,0.362979,9.353210,17.803528,0.024704,-0.103108,0.527061,6.092000,15.528194

1.310822,0.839588,9.999866,17.800587,-0.026457,-0.112434,0.511074,5.952000,15.528194

1.188675,-0.211825,10.332773,17.815292,0.037227,-0.070067,0.449254,5.824000,15.528194

1.586249,0.303104,9.887300,17.821175,-0.003541,-0.057810,0.338939,5.676000,15.528194

1.073714,0.089947,10.277688,17.803528,-0.015532,-0.049283,0.256069,5.552000,15.528194

1.605409,-0.468093,9.822634,17.812351,0.008982,-0.013843,0.161475,5.376000,15.528194

1.706000,-0.870456,9.798684,17.803528,-0.029921,-0.033561,0.055689,5.216000,15.528194

1.332377,0.456385,10.263317,17.812351,-0.004874,0.005609,-0.051962,5.088000,15.528194

1.318007,-0.025014,9.889694,17.812351,0.020174,0.001345,-0.169205,4.964000,15.528194

1.152750,1.131781,9.884905,17.832939,0.078263,0.034120,-0.258736,4.828000,15.528194

0.621056,2.748419,9.978311,17.818233,0.051083,0.028258,-0.286182,4.708000,15.528194

-0.087870,3.222633,8.960427,17.821175,0.029766,0.065296,-0.237686,4.588000,15.528194

-1.596732,2.381981,9.422666,17.815292,0.032431,-0.031430,-0.211040,4.468000,15.528194

-0.545319,1.946087,9.494516,17.803528,0.017776,-0.027433,-0.195318,4.348000,15.528194

-0.928522,1.943692,9.918435,17.827057,0.037227,-0.017041,-0.194519,4.232000,15.528194

0.053436,2.980736,8.895761,17.809410,0.061742,-0.003185,-0.105787,4.112000,15.528194

0.156422,2.441856,8.684999,17.818233,0.028434,-0.000787,0.139891,3.964000,15.528194

-0.310607,2.992711,9.614267,17.815292,0.001788,0.006941,0.215833,3.848000,15.528194

-0.147745,3.028636,9.290939,17.818233,0.022838,-0.018906,0.207573,3.736000,15.528194

0.012721,3.007081,8.661049,17.812351,0.024704,-0.020238,0.221962,3.624000,15.528194

0.371974,2.810689,9.209509,17.829998,0.015377,-0.019439,0.241414,3.516000,15.528194

0.724042,2.707703,9.607082,17.835880,0.009782,-0.029032,0.240081,3.404000,15.528194

0.891693,2.559212,9.046648,17.827057,0.007384,-0.012511,0.247809,3.312000,15.528194

0.340838,2.559212,9.106524,17.827057,-0.001676,0.010405,0.264329,3.248000,15.528194

0.508490,2.765184,9.444221,17.829998,0.002321,-0.000520,0.248608,3.196000,15.528194

0.642611,2.741234,9.278965,17.824116,-0.002209,0.006674,0.194783,3.152000,15.528194

0.460589,2.516102,9.221484,17.812351,-0.000877,0.006674,0.106317,3.096000,15.528194

0.470170,2.348450,9.307705,17.847647,-0.001143,-0.010912,-0.000534,3.048000,15.528194

0.692906,2.372401,9.401111,17.827057,-0.000877,-0.005583,-0.101257,3.004000,15.528194

0.724042,2.585557,9.211904,17.835880,-0.001410,-0.003718,-0.149220,2.964000,15.528194

0.558785,2.834639,9.111313,17.850588,-0.002476,-0.005583,-0.168139,2.920000,15.528194

0.589921,2.997501,9.247829,17.832939,-0.006739,-0.004251,-0.169471,2.876000,15.528194

0.283358,2.556817,9.257409,17.829998,-0.017664,0.007740,-0.135098,2.788000,15.528194

0.166002,2.367611,9.401111,17.821175,-0.016598,-0.001053,-0.168139,2.744000,15.528194

0.345629,2.343660,9.300520,17.827057,-0.009404,-0.010646,-0.195052,2.704000,15.528194

0.350419,2.468201,9.310100,17.829998,-0.007272,-0.011712,-0.201980,2.664000,15.528194

0.182767,2.643038,9.334050,17.827057,-0.004074,-0.010912,-0.155882,2.612000,15.528194

0.194742,2.559212,9.343630,17.844706,-0.008338,-0.011978,-0.108984,2.576000,15.528194

0.041461,2.434671,9.262199,17.847647,-0.010203,-0.010379,-0.055159,2.532000,15.528194

0.096547,2.302945,9.372371,17.847647,-0.003009,-0.017840,-0.032243,2.492000,15.528194

0.264198,2.329290,9.472961,17.832939,-0.004607,-0.015708,-0.010127,2.456000,15.528194

0.594711,2.393956,9.350815,17.806469,0.003653,-0.021837,0.031441,2.420000,15.528194

0.587526,2.544842,9.310100,17.818233,0.003387,-0.002652,0.079937,2.376000,15.528194

-0.039970,2.681358,9.329260,17.832939,0.005518,-0.006382,0.065282,2.336000,15.528194

-0.023204,2.657408,9.221484,17.838821,-0.000077,-0.027166,0.024780,2.296000,15.528194

0.479750,2.504127,9.281360,17.835880,-0.002476,-0.038891,0.015453,2.264000,15.528194

0.786312,2.501732,9.310100,17.832939,0.003653,-0.017840,0.028777,2.220000,15.528194

0.465380,2.489757,9.214299,17.829998,0.002854,-0.016241,0.010924,2.180000,15.528194

0.448614,2.499337,9.269384,17.835880,0.003920,-0.018640,-0.013591,2.148000,15.528194

0.532440,2.623878,9.346025,17.818233,0.001788,-0.020505,-0.007462,2.116000,15.528194

0.594711,2.722074,9.293335,17.844706,-0.000077,-0.010912,0.010657,2.076000,15.528194

0.204322,2.611902,9.341235,17.847647,0.000189,-0.010646,0.013322,2.044000,15.528194

0.352814,2.552027,9.252620,17.835880,0.000722,-0.018906,0.005061,2.012000,15.528194

0.479750,2.487362,9.305309,17.827057,-0.000077,-0.013577,-0.004265,1.980000,15.528194

0.680931,2.501732,9.341235,17.838821,-0.001943,-0.013843,-0.003732,1.948000,15.528194

0.731227,2.549632,9.266990,17.850588,-0.001143,-0.002652,0.012256,1.916000,15.528194

0.776732,2.573582,9.293335,17.853529,-0.000077,0.003477,0.038369,1.872000,15.528194

0.779127,2.542447,9.310100,17.847647,0.000722,0.016267,0.051692,1.844000,15.528194

0.628241,2.643038,9.262199,17.856470,0.000189,0.026659,0.058087,1.808000,15.528194

0.573155,2.729259,9.317285,17.853529,-0.005140,0.029590,0.054890,1.780000,15.528194

0.539625,2.623878,9.257409,17.871176,-0.004874,0.031455,0.038103,1.752000,15.528194

0.391134,2.530472,9.302915,17.865294,-0.003808,0.029057,0.012256,1.720000,15.528194

0.532440,2.506522,9.329260,17.856470,-0.001943,0.027458,0.000265,1.692000,15.528194

0.319283,2.405931,9.381950,17.868235,-0.001676,0.034919,0.004795,1.664000,15.528194

0.201927,2.547237,9.343630,17.859411,-0.003275,0.028791,0.004262,1.632000,15.528194

0.225878,2.607113,9.152028,17.879999,-0.001143,0.022929,0.012256,1.608000,15.528194

-0.090265,2.643038,9.326865,17.841763,0.001255,0.005875,0.023181,1.576000,15.528194

0.180372,2.638248,9.386741,17.868235,-0.003275,0.002411,0.001597,1.548000,15.528194

0.352814,2.544842,9.281360,17.868235,-0.004607,-0.001053,0.006127,1.520000,15.528194

0.424664,2.456226,9.231064,17.865294,-0.001943,-0.001053,0.030642,1.496000,15.528194

0.374369,2.508917,9.372371,17.871176,-0.001410,-0.001586,0.026112,1.468000,15.528194

0.714462,2.652618,9.322075,17.862352,-0.003009,0.001612,0.014121,1.440000,15.528194

0.652191,2.631063,9.266990,17.871176,-0.003541,0.012803,0.011723,1.412000,15.528194

0.697697,2.616693,9.264594,17.868235,-0.005140,0.014135,0.010391,1.392000,15.528194

0.623451,2.456226,9.324470,17.868235,-0.005140,0.023461,-0.007995,1.364000,15.528194

0.422269,2.456226,9.266990,17.871176,-0.001410,0.025060,-0.027980,1.344000,15.528194

0.300123,2.556817,9.346025,17.862352,-0.005407,0.023461,-0.027181,1.312000,15.528194

0.376764,2.611902,9.288545,17.859411,-0.004607,0.020797,-0.021318,1.288000,15.528194

0.199532,2.525682,9.288545,17.865294,-0.005140,0.023461,-0.025315,1.268000,15.528194

0.098942,2.492151,9.252620,17.871176,-0.003009,0.014402,-0.022651,1.248000,15.528194

0.508490,2.626273,9.274175,17.885881,-0.001943,0.010938,-0.011193,1.212000,15.528194

0.367184,2.449041,9.322075,17.894705,-0.003808,0.015201,0.004529,1.188000,15.528194

0.510885,2.523287,9.276569,17.868235,0.000189,0.013336,0.006660,1.172000,15.528194

0.446219,2.729259,9.348420,17.879999,0.000455,0.026926,0.009325,1.156000,15.528194

0.271383,2.693333,9.326865,17.888823,-0.004607,0.023195,0.015986,1.144000,15.528194

0.374369,2.542447,9.278965,17.871176,-0.003808,0.020264,0.013588,1.136000,15.528194

0.628241,2.554422,9.355605,17.885881,-0.004874,0.025860,-0.006663,1.120000,15.528194

0.592316,2.544842,9.346025,17.868235,-0.004607,0.032521,-0.016256,1.104000,15.528194

0.278568,2.523287,9.250224,17.874117,-0.004874,0.038650,-0.023450,1.096000,15.528194

-0.078290,2.578372,9.255014,17.879999,-0.004341,0.029857,-0.037040,1.088000,15.528194

0.065411,2.537657,9.322075,17.862352,-0.006739,0.020530,-0.050629,1.080000,15.528194

0.319283,2.542447,9.245434,17.882940,-0.006206,0.025060,-0.038905,1.068000,15.528194

0.125287,2.530472,9.350815,17.882940,-0.005940,0.028258,-0.019453,1.060000,15.528194

0.027091,2.477782,9.348420,17.871176,-0.003808,0.021330,-0.013591,1.056000,15.528194

0.101337,2.413116,9.336445,17.882940,-0.000610,0.015734,-0.005331,1.048000,15.528194

0.094152,2.568792,9.269384,17.885881,-0.000344,0.017866,0.005328,1.040000,15.528194

0.089361,2.666988,9.331655,17.894705,0.000988,0.010671,0.010924,1.032000,15.528194

0.405504,2.633458,9.271779,17.903528,-0.001943,0.010405,0.010124,1.028000,15.528194

0.343234,2.532867,9.300520,17.888823,-0.004607,0.016800,0.016519,1.020000,15.528194

0.189952,2.470596,9.252620,17.885881,-0.008871,0.017599,0.016519,1.016000,15.528194

0.103732,2.508917,9.437036,17.882940,-0.002476,0.015734,0.008525,1.012000,15.528194

0.568365,2.662198,9.341235,17.871176,-0.004874,0.014135,0.018385,1.008000,15.528194

0.601896,2.544842,9.295730,17.900587,-0.003009,0.029590,0.032507,1.004000,15.528194

0.264198,2.429881,9.314890,17.891764,-0.001143,0.033854,-0.000801,1.000000,15.528194

-0.008834,2.506522,9.298124,17.885881,-0.003541,0.029857,-0.033842,0.996000,15.528194

-0.016019,2.571187,9.259805,17.868235,-0.005140,0.023195,-0.036240,0.992000,15.528194

-0.099845,2.535262,9.367580,17.897646,-0.003808,0.020264,-0.031444,0.988000,15.528194

-0.162116,2.511312,9.281360,17.912352,-0.002476,0.011737,-0.015989,0.980000,15.528194

-0.138165,2.461016,9.314890,17.885881,-0.001410,-0.000787,-0.006396,0.980000,15.528194

0.051041,2.516102,9.341235,17.897646,0.000455,0.001612,-0.005064,0.976000,15.528194

0.089361,2.552027,9.369975,17.894705,-0.000610,-0.003451,0.013855,0.976000,15.528194

0.209112,2.549632,9.240644,17.891764,-0.002742,-0.003718,0.018651,0.972000,15.528194

-0.073500,2.666988,9.338840,17.915293,0.000988,-0.000520,-0.002399,0.968000,15.528194

0.036671,2.729259,9.269384,17.888823,-0.001943,-0.009846,0.009591,0.964000,15.528194

0.242643,2.652618,9.444221,17.885881,-0.001943,-0.010912,0.037303,0.960000,15.528194

0.621056,2.540052,9.310100,17.894705,-0.000877,-0.003984,0.049827,0.964000,15.528194

0.525255,2.370006,9.271779,17.918234,-0.002742,0.009605,0.041833,0.956000,15.528194

0.422269,2.468201,9.295730,17.903528,-0.004341,0.016001,0.009325,0.956000,15.528194

0.177977,2.554422,9.271779,17.888823,-0.003808,0.014668,-0.025315,0.952000,15.528194

0.091757,2.542447,9.319680,17.888823,-0.003009,0.013069,-0.036507,0.952000,15.528194

-0.097450,2.441856,9.396320,17.912352,-0.002476,0.012537,-0.041037,0.944000,15.528194

0.144447,2.643038,9.384345,17.912352,-0.000077,-0.000254,0.032774,0.940000,15.528194

0.381554,2.674173,9.362790,17.906469,-0.007005,0.025327,0.009325,0.932000,15.528194

0.108522,2.501732,9.199929,17.903528,-0.005940,0.022929,-0.005064,0.932000,15.528194

0.209112,2.358031,9.350815,17.909410,-0.006206,0.021330,-0.006396,0.932000,15.528194

0.230668,2.381981,9.343630,17.915293,-0.005140,0.025593,-0.013324,0.928000,15.528194

0.010326,2.405931,9.367580,17.929998,-0.007272,0.024261,-0.024249,0.928000,15.528194

-0.557294,2.513707,9.355605,17.918234,-0.003009,0.015468,-0.042369,0.924000,15.528194

-0.392037,2.540052,9.334050,17.909410,-0.004074,-0.009313,-0.033576,0.924000,15.528194

-0.035179,2.405931,9.319680,17.932940,0.000722,-0.011712,-0.007995,0.924000,15.528194

-0.375272,2.334080,9.319680,17.918234,0.000988,-0.014110,0.010657,0.920000,15.528194

-0.243546,2.578372,9.326865,17.918234,0.002854,-0.027166,0.021049,0.920000,15.528194

-0.111820,2.681358,9.362790,17.915293,0.008183,-0.037026,0.030642,0.920000,15.528194

0.019906,2.719678,9.269384,17.909410,0.003920,-0.034894,0.039968,0.920000,15.528194

0.086966,2.635853,9.365185,17.897646,-0.000610,-0.041022,0.043965,0.916000,15.528194

0.510885,2.616693,9.255014,17.924116,-0.002209,-0.036493,0.039968,0.916000,15.528194

0.728832,2.554422,9.202324,17.927057,-0.000610,-0.027433,0.022648,0.912000,15.528194

0.491725,2.544842,9.393926,17.924116,-0.003275,-0.013044,-0.007995,0.916000,15.528194

0.290543,2.626273,9.180769,17.924116,-0.003275,-0.016241,-0.038372,0.916000,15.528194

0.204322,2.518497,9.338840,17.941763,-0.002209,-0.014110,-0.055958,0.916000,15.528194

0.312098,2.492151,9.348420,17.912352,-0.003009,-0.014110,-0.065818,0.908000,15.528194

0.300123,2.472991,9.266990,17.924116,-0.005673,-0.006116,-0.054360,0.912000,15.528194

0.139657,2.566397,9.379556,17.918234,-0.001943,-0.004251,-0.031444,0.912000,15.528194

0.125287,2.516102,9.358000,17.929998,-0.001143,-0.007448,-0.012259,0.912000,15.528194

0.130077,2.420301,9.358000,17.900587,0.000189,-0.007715,0.004795,0.912000,15.528194

0.074991,2.470596,9.336445,17.915293,0.007117,-0.007182,0.012522,0.908000,15.528194

0.103732,2.626273,9.338840,17.944704,0.004719,-0.008780,0.029576,0.908000,15.528194

0.503700,2.640643,9.278965,17.921175,-0.002209,-0.010912,0.050627,0.908000,15.528194

0.724042,2.609508,9.283754,17.932940,-0.002742,0.007740,0.051426,0.904000,15.528194

0.345629,2.547237,9.326865,17.915293,-0.000610,0.016001,0.020783,0.908000,15.528194

0.070201,2.544842,9.195139,17.921175,-0.003275,0.010405,-0.025049,0.908000,15.528194

0.321678,2.604717,9.310100,17.918234,-0.005940,0.006941,-0.036773,0.908000,15.528194

0.546810,2.523287,9.405901,17.932940,-0.007805,0.014935,-0.025315,0.908000,15.528194

0.290543,2.370006,9.324470,17.932940,-0.004874,0.022929,-0.025315,0.904000,15.528194

-0.061525,2.434671,9.336445,17.929998,0.001788,0.019731,-0.045300,0.904000,15.528194

