ax,ay,az,gx,gy,gz,temp,volt,vel

0.173187,1.752090,9.487331,15.924116,0.002854,0.020797,0.093261,0.880000,0.000000

0.467775,1.699400,9.489726,15.944704,0.008183,0.024261,0.154014,0.876000,0.000000

0.616266,1.811966,9.439431,15.947645,0.012979,0.028791,0.094326,0.876000,0.000000

0.587526,2.108948,9.413086,15.944704,0.011647,0.037850,0.087398,0.876000,0.000000

0.594711,2.123319,9.393926,15.974117,0.007916,0.039982,0.058620,0.880000,0.000000

0.407899,2.410721,9.312495,15.944704,0.019374,0.058901,0.030908,0.876000,0.000000

0.427059,2.168824,9.429851,15.968235,0.005785,0.042647,0.082336,0.884000,0.000000

0.144447,1.993988,9.108918,15.988823,0.016443,0.059967,0.038902,0.880000,0.000000

0.359999,1.907767,9.700488,15.997646,-0.025924,0.042380,-0.081539,0.880000,0.000000

-0.454308,2.607113,8.977192,15.985882,0.010048,0.036252,-0.110050,0.884000,0.000000

0.575550,2.633458,9.571157,15.991764,-0.014733,0.018665,-0.146556,0.880000,0.000000

-1.486561,3.895633,9.654983,15.991764,0.030299,0.078619,-0.105787,0.876000,0.000000

-0.322582,2.937625,9.753179,15.994705,-0.021927,0.000013,-0.073012,0.880000,0.000000

-1.433871,3.318433,9.585527,16.021175,-0.004607,-0.048750,0.002930,0.880000,0.000000

-1.862579,3.193892,9.882509,16.006470,0.014312,-0.090851,-0.027713,0.940000,0.000000

-1.000372,2.911280,9.266990,16.021175,0.031365,-0.102042,-0.025049,0.976000,0.000000

-1.191974,3.795042,10.086086,16.018234,0.061475,-0.145209,-0.026115,1.008000,0.000000

-0.365692,4.233331,9.595107,16.032940,0.112636,-0.218486,0.091662,1.412000,0.000000

0.908458,3.098092,10.732741,16.041763,0.063341,-0.206229,0.111114,1.424000,0.000000

0.858163,2.851404,9.178373,16.038822,0.045754,-0.163595,0.149751,1.392000,0.000000

-1.285380,1.076695,8.661049,16.041763,-0.028589,-0.253127,0.039169,1.360000,0.000000

2.539467,2.147269,9.329260,16.050587,0.019108,-0.239803,-0.003199,1.372000,0.000000

-0.966842,2.214329,9.039463,16.050587,-0.062430,-0.175586,0.204109,1.348000,0.000000

2.316730,0.367769,9.168794,16.047646,-0.041912,-0.301090,0.144155,1.948000,0.000000

0.501305,3.011871,9.281360,16.050587,0.024970,-0.165194,0.176930,1.916000,0.000000

2.192189,2.214329,8.811935,16.053528,-0.127713,-0.267516,-0.038105,1.936000,0.000000

1.308426,2.726864,9.784313,16.059410,0.044422,-0.184379,-0.193187,3.060000,0.000000

1.397042,2.302945,9.666958,16.053528,-0.044577,-0.153470,-0.254473,3.720000,0.000000

1.907181,2.061048,9.199929,16.068233,-0.035517,-0.155335,-0.274458,3.852000,0.000000

2.242484,2.628668,10.155541,16.074116,0.032964,-0.123892,-0.186259,3.896000,0.000000

2.383790,2.384376,7.980864,16.079998,-0.017930,-0.088453,-0.183328,4.320000,0.000000

2.556232,2.614298,8.735295,16.085880,0.018575,-0.013044,-0.212105,5.012000,0.000000

1.804196,2.822664,9.463381,16.091763,0.020707,0.006141,-0.058623,5.048000,0.000000

2.084413,2.235884,8.486213,16.085880,-0.009937,0.023994,-0.062886,5.208000,0.000000

0.609081,2.408326,8.996352,16.112352,-0.014466,0.041847,0.131631,5.544000,0.000000

-0.842301,1.656290,9.520862,16.094706,0.020973,0.026126,0.031441,6.056000,0.000000

1.339562,3.157967,7.542575,16.109411,0.064140,-0.023169,0.095659,6.072000,0.000000

-0.080685,1.972432,11.532678,16.127058,-0.138904,0.012803,0.231821,5.964000,0.000000

1.250946,1.138966,9.319680,16.115294,-0.020861,0.006141,0.252072,6.396000,0.000000

0.283358,2.746024,10.280083,16.103529,-0.011535,0.012537,0.162008,6.392000,0.000000

1.969452,2.602323,8.522139,16.103529,-0.012335,-0.028232,0.161475,6.796000,0.000000

1.464103,2.015543,8.584409,16.106470,0.010315,0.064497,0.099123,6.864000,0.000000

1.921551,4.515944,8.847861,16.100588,0.097181,0.138040,0.122571,7.140000,0.000000

0.451009,4.269256,9.973520,16.109411,0.001788,0.141238,0.096991,7.144000,0.000000

0.673746,2.470596,5.494833,16.118235,-0.002742,0.102334,0.120440,7.180000,0.000000

1.638939,5.028478,9.947175,16.112352,0.245335,0.042913,0.177729,7.228000,0.000000

0.453404,2.499337,11.714700,16.124117,-0.196993,0.177743,0.326682,7.232000,0.000000

1.073714,2.513707,6.055268,16.124117,-0.049639,0.185471,0.470838,7.276000,0.000000

-0.351322,3.107671,11.168635,16.129999,0.060942,0.221710,0.603803,7.300000,0.000000

-2.118846,1.194051,10.347143,16.141764,0.104376,0.160690,0.468706,7.328000,0.000000

-3.321146,2.750814,8.119775,16.129999,0.104376,0.131379,0.284048,7.344000,0.000000

-6.166430,0.968919,10.229787,16.147646,-0.176742,0.142037,0.260865,7.336000,0.000000

-0.241151,-0.436957,9.571157,16.150587,-0.090675,-0.184379,0.484694,7.332000,0.000000

3.729791,-1.397360,14.263000,16.144705,-0.050972,0.095140,0.903306,7.320000,0.000000

1.054554,-0.144765,10.404624,16.144705,0.016976,0.271538,1.199879,7.296000,0.000000

-2.703231,2.762789,14.564773,16.127058,0.377766,0.389581,0.988308,7.312000,0.000000

0.860558,-0.029804,3.092629,16.138823,-0.121851,0.030656,0.173199,7.296000,0.000000

0.295333,-1.035712,13.601974,16.168234,0.025503,0.318968,0.027178,7.284000,0.000000

4.489012,2.132899,5.533154,16.165293,0.039093,0.137774,0.388501,7.288000,0.000000

-0.281867,-0.561498,9.128078,16.150587,-0.096270,0.353609,0.351196,7.292000,0.000000

-0.135770,2.008358,10.383068,16.162352,0.052682,0.233700,0.278718,7.288000,0.000000

-1.012347,4.903936,8.902946,16.156469,0.070269,0.263011,-0.413551,7.320000,0.000000

1.782640,1.764066,7.743757,16.159410,0.067071,0.163621,-0.785000,7.316000,0.000000

2.589762,1.965247,10.656101,16.177057,0.130489,0.192932,-1.033876,7.324000,0.000000

3.274737,5.026083,7.418034,16.153528,-0.019796,0.396509,-0.962464,7.332000,0.000000

-0.387247,-3.322956,5.303232,16.165293,-0.066693,0.192399,-1.038672,7.324000,0.000000

-1.829049,-0.630954,13.855846,16.182940,-0.216978,-0.098312,-0.921162,7.304000,0.000000

1.078505,4.573424,8.946056,16.171175,0.208829,0.034919,-0.770078,7.300000,0.000000

-1.965565,2.343660,10.229787,16.165293,0.083059,0.095140,-0.693870,7.292000,0.000000

-1.467401,1.196446,9.690907,16.177057,0.107840,-0.051947,-0.335478,7.316000,0.000000

-1.738038,2.956785,9.959150,16.185881,0.027901,-0.060208,-0.008795,7.316000,0.000000

1.001864,3.054981,9.288545,16.179998,0.021772,-0.140146,0.375711,7.344000,0.000000

1.603014,2.729259,5.684040,16.177057,0.124094,-0.084189,0.558770,7.348000,0.000000

2.287989,6.288258,10.601015,16.197645,0.164063,0.177477,0.649101,7.340000,0.000000

-0.248336,7.090590,9.693303,16.174116,0.394287,0.318169,0.564633,7.360000,0.000000

2.220929,-4.304914,8.577224,16.185881,-0.066960,-0.282171,0.349331,7.344000,0.000000

-0.255521,3.390284,8.826305,16.188822,-0.180739,0.022396,0.071144,7.332000,0.000000

-0.789611,-0.405822,9.475356,16.191763,-0.239361,0.266209,-0.062087,7.308000,0.000000

3.059186,3.196287,10.433364,16.182940,-0.332889,0.361602,-0.182262,7.332000,0.000000

1.401832,0.063602,9.631032,16.177057,-0.177275,0.388249,-0.082338,7.324000,0.000000

0.803077,10.019698,10.222602,16.185881,0.008183,0.363734,-0.062087,7.360000,0.000000

-1.388366,4.872801,9.183164,16.182940,0.089188,0.231036,-0.006663,7.364000,0.000000

-2.923573,2.796319,9.017907,16.194704,0.206964,0.209452,-0.091132,7.348000,0.000000

1.006654,-1.617702,12.655942,16.212351,-0.077352,-0.025301,-0.308831,7.352000,0.000000

-1.304540,-2.034435,8.165280,16.197645,-0.148497,0.012270,-0.578225,7.352000,2679.629291

1.519188,3.936348,6.505531,16.191763,0.265586,0.072224,-0.417282,7.364000,2679.629291

-0.080685,0.403695,10.962664,16.206469,-0.609477,-0.158532,-0.375181,7.344000,2679.629291

0.060621,7.255846,8.332932,16.194704,0.637834,0.563581,0.033839,7.364000,2679.629291

2.996915,0.966524,8.469448,16.194704,-0.327027,0.109795,0.155080,7.344000,2679.629291

-2.516420,-0.139975,9.405901,16.209410,0.291965,0.322699,0.343735,7.356000,2679.629291

-4.434831,1.076695,8.776011,16.212351,-0.435211,0.002144,-0.060488,7.360000,2679.629291

1.265316,2.274205,8.797565,16.215292,-0.013401,-0.013577,-0.221698,7.368000,2679.629291

0.896483,0.758158,9.899275,16.221176,-0.171146,0.067161,-0.260868,7.356000,2679.629291

0.530045,6.070311,9.245434,16.212351,-0.051771,0.112193,-0.211306,7.360000,2679.629291

-0.703390,0.748577,8.859837,16.215292,0.160599,0.272071,-0.067416,7.372000,2679.629291

-0.087870,3.763907,8.828701,16.224117,0.151007,0.264610,-0.272326,7.380000,2679.629291

-1.675768,-2.008090,10.751902,16.224117,-0.303045,0.027458,-0.302969,7.376000,2679.629291

-3.464847,3.751932,11.982942,16.221176,-0.217244,0.166818,-0.454320,7.384000,2679.629291

-1.316515,0.552186,10.177097,16.221176,-0.078417,0.092475,-0.455386,7.388000,2679.629291

0.441429,0.604876,9.396320,16.227058,0.023904,-0.001852,-0.466311,7.384000,2679.629291

-0.492628,-1.792538,9.942385,16.230000,-0.331557,0.021063,-0.290179,7.376000,2679.629291

-3.026559,-1.864389,9.975915,16.230000,-0.303578,-0.095114,-0.444727,7.372000,2679.629291

-1.872159,3.668106,9.039463,16.230000,0.077996,0.108197,-0.577692,7.376000,2679.629291

1.032999,-1.387780,10.174702,16.206469,-0.270270,0.010938,-0.711456,7.376000,2679.629291

-1.453031,1.627550,8.385622,16.212351,-0.028322,0.155094,-0.942213,7.396000,2679.629291

-1.488956,3.811807,12.988850,16.212351,-0.374990,0.068494,-1.043735,7.388000,2679.629291

-1.790729,1.754486,7.937753,16.232941,0.249864,0.170815,-1.281686,7.396000,2679.629291

-0.293842,0.473150,9.451406,16.224117,0.079595,-0.032229,-1.347502,7.404000,2679.629291

-1.716483,3.775882,11.326706,16.218235,-0.073621,-0.033029,-1.251309,7.408000,2679.629291

-2.796637,6.372084,8.840676,16.244705,0.621580,0.275535,-1.182562,7.424000,2679.629291

2.810104,-1.148278,7.844347,16.230000,0.018575,-0.344523,-1.077576,7.432000,2679.629291

-1.438661,1.718560,9.793894,16.221176,0.346324,0.016800,-0.658963,7.436000,2679.629291

-0.614774,1.019215,10.275292,16.224117,0.196838,-0.237672,-0.416482,7.436000,13.887631

-1.601522,1.924532,10.076506,16.230000,0.215224,-0.140946,-0.183860,7.436000,13.887631

-2.485285,0.674332,9.190349,16.250587,0.201901,-0.185978,-0.044234,7.436000,13.887631

-3.369047,0.691097,8.895761,16.209410,0.204832,-0.205163,0.062351,7.436000,13.887631

-1.757199,0.815638,8.265871,16.232941,0.283439,-0.243800,0.069279,7.440000,13.887631

-2.557135,0.018096,9.432246,16.230000,0.133420,-0.271779,0.091395,7.440000,13.887631

-1.345255,2.856194,8.840676,16.247646,0.174988,-0.288833,0.221695,7.436000,13.887631

-0.966842,2.592742,8.934082,16.244705,0.167261,-0.228079,0.357325,7.436000,13.887631

-1.488956,2.195169,9.130473,16.235882,0.087589,-0.227013,0.362654,7.440000,13.887631

-1.955985,0.418065,9.334050,16.244705,-0.019529,-0.241669,0.373313,7.444000,13.887631

-1.397946,1.668265,9.808264,16.230000,-0.012335,-0.207295,0.331744,7.440000,13.887631

-2.205067,1.503009,12.581697,16.238823,0.105442,-0.155868,0.292574,7.436000,13.887631

-1.371600,3.174732,10.897998,16.244705,0.225083,-0.214756,0.239548,7.444000,13.887631

0.630636,3.131622,9.880115,16.244705,0.164863,-0.295228,0.393564,7.448000,13.887631

-0.794401,1.687425,7.003695,16.244705,0.092119,-0.258189,0.409818,7.452000,13.887631

-1.033903,1.922137,9.324470,16.241764,0.091053,-0.264851,0.316023,7.452000,13.887631

-1.225504,2.501732,8.074269,16.235882,0.119564,-0.164661,0.362388,7.452000,13.887631

1.614989,-0.480068,10.783037,16.253529,-0.078950,-0.170523,0.410351,7.444000,13.887631

0.041461,1.447923,13.163686,16.265293,-0.045909,0.088478,0.284847,7.440000,13.887631

1.068924,1.807176,9.966335,16.262352,-0.095205,0.037584,0.095659,7.440000,13.887631

-0.792006,3.921978,7.928173,16.256470,-0.185002,0.008273,0.057555,7.440000,13.887631

-1.872159,4.029754,11.772180,16.253529,-0.054969,0.073290,0.010924,7.444000,13.887631

-0.681835,5.337435,9.027488,16.256470,0.174988,0.104733,-0.046099,7.460000,13.887631

-0.420778,3.900423,6.974955,16.244705,-0.025924,0.019465,0.078339,7.452000,13.887631

-2.418224,-0.096864,10.754296,16.253529,0.079328,0.333091,-0.035174,7.456000,16.565470

-2.969078,-4.666562,9.061018,16.247646,-0.045376,-0.104973,-0.042369,7.456000,16.565470

-2.054181,-1.045292,10.948293,16.247646,-0.145566,-0.055145,0.037570,7.456000,16.565470

-0.981212,1.699400,5.763075,16.253529,-0.112525,0.010671,0.212103,7.456000,16.565470

-5.689821,2.951995,7.489884,16.259411,-0.018996,0.174812,-0.021585,7.452000,16.565470

2.146683,4.999737,10.215417,16.253529,0.200036,0.011471,-0.142559,7.460000,16.565470

-1.996701,12.294967,7.164162,16.259411,0.282639,0.430883,0.099389,7.468000,16.565470

0.652191,2.944810,10.301638,16.259411,0.331402,0.135642,0.103386,7.476000,16.565470

1.686840,5.567357,9.513677,16.250587,0.347123,-0.183047,-0.157214,7.468000,16.565470

3.245997,1.388048,6.924660,16.247646,0.278909,0.018132,-0.088200,7.480000,16.565470

-1.611102,-0.880036,6.170228,16.253529,-0.268405,-0.249396,-0.050096,7.464000,16.565470

-3.443292,2.240674,11.779365,16.247646,-0.383783,0.044778,-0.078075,7.468000,16.565470

-2.851722,4.151900,10.421389,16.250587,0.095849,0.100469,-0.073279,7.464000,16.565470

-0.111820,-1.071637,10.933923,16.259411,0.156336,-0.050082,-0.089266,7.472000,16.565470

1.725160,-3.722924,8.131750,16.253529,-0.257214,-0.264584,-0.109517,7.468000,16.565470

-0.803981,2.774764,7.492280,16.253529,0.114235,-0.178784,-0.050896,7.476000,16.565470

-1.002767,-2.182926,8.608358,16.256470,-0.192197,-0.285369,0.021582,7.464000,16.565470

-3.982172,-8.206401,12.596066,16.250587,-0.509287,-0.410073,-0.018121,7.464000,16.565470

-4.612062,-0.350737,10.938713,16.256470,-0.512485,0.058102,0.033573,7.472000,16.565470

-3.704349,2.290970,10.201047,16.250587,0.088921,0.192932,0.293374,7.468000,16.565470

-2.631381,1.711375,14.004338,16.268234,-0.019529,0.203057,0.286712,7.476000,16.565470

-4.185749,1.689820,11.542258,16.271175,-0.129578,0.054105,0.254737,7.464000,17.463872

-0.059130,-0.848901,6.316325,16.256470,0.222419,-0.128422,0.241414,7.480000,17.463872

-1.335675,1.282667,10.407019,16.253529,-0.011535,-0.086588,0.168137,7.476000,17.463872

-1.910480,6.618771,9.983100,16.247646,0.165929,0.042647,0.120173,7.480000,17.463872

-1.872159,4.099210,9.702883,16.279999,-0.109327,0.117789,0.219031,7.480000,17.463872

-2.279313,5.071588,8.335326,16.247646,-0.049373,0.232368,0.170002,7.484000,17.463872

0.371974,0.039652,14.004338,16.268234,0.010848,-0.034094,0.097257,7.484000,17.463872

-0.195646,8.668907,11.760204,16.253529,0.313016,0.193997,-0.009594,7.488000,17.463872

1.938317,4.484808,8.694579,16.265293,0.174988,0.259281,0.290176,7.484000,17.463872

1.689234,0.911439,7.722201,16.268234,-0.331290,-0.142545,0.125769,7.480000,17.463872

-3.014584,3.974669,7.760522,16.277058,-0.380852,-0.071666,0.063150,7.476000,17.463872

-0.473468,-1.294374,18.899757,16.259411,-0.060564,-0.031430,0.019983,7.472000,17.463872

3.909418,3.866893,7.489884,16.247646,-0.016065,-0.121494,-0.159079,7.476000,17.463872

-0.030389,1.320987,9.417875,16.259411,0.008183,0.018665,0.359190,7.476000,17.463872

-2.063761,-1.919474,8.582014,16.282940,0.007650,0.030922,0.434599,7.464000,17.463872

-1.263825,-1.703923,10.071716,16.253529,-0.425618,-0.393552,0.362121,7.468000,17.463872

-3.201395,3.957904,9.753179,16.262352,-0.149296,0.006141,0.448721,7.480000,17.463872

0.589921,4.154295,6.261240,16.259411,0.265053,0.036252,0.426872,7.480000,17.463872

-2.449359,0.746182,10.924343,16.265293,-0.306509,0.081017,0.496685,7.484000,17.463872

2.192189,5.279954,9.690907,16.259411,0.060143,0.229437,0.541983,7.484000,17.463872

-1.421896,-2.233222,8.299401,16.262352,0.295696,0.367731,0.057821,7.484000,17.463872

-3.366652,0.185748,10.184282,16.259411,-0.456794,-0.046352,-0.148154,7.488000,17.463872

0.139657,4.968602,6.457631,16.259411,-0.212714,0.063964,-0.076743,7.480000,17.463872

0.915643,3.838153,15.314414,16.253529,-0.136506,0.074089,-0.192387,7.484000,17.684373

-1.141679,-1.694342,15.814973,16.253529,-0.451198,0.110062,-0.106853,7.480000,17.684373

-3.136730,3.773487,10.308823,16.247646,0.155537,0.419425,-0.220366,7.488000,17.684373

-1.465006,8.913199,10.256132,16.253529,0.372970,0.260347,-0.070081,7.496000,17.684373

0.807867,3.440579,5.166716,16.235882,0.263187,0.170282,-0.260602,7.488000,17.684373

1.832936,1.026400,12.167358,16.256470,-0.330757,-0.199834,-0.348534,7.488000,17.684373

1.660494,4.120765,15.482065,16.259411,-0.134907,0.132978,-0.206243,7.492000,17.684373

-2.461334,6.877433,8.438313,16.227058,-0.020062,0.350944,-0.218767,7.492000,17.684373

-0.411198,-1.569802,7.681486,16.247646,0.015377,-0.110836,-0.082605,7.484000,17.684373

-1.821864,5.450001,5.387057,16.247646,-0.218843,-0.010912,-0.137762,7.488000,17.684373

-1.589547,-0.305231,10.591435,16.241764,0.182982,0.053039,-0.053560,7.484000,17.684373

2.949015,-2.190112,19.474564,16.235882,-0.664102,-0.318143,0.278985,7.496000,17.684373

-4.310289,2.810689,14.016314,16.253529,-0.268139,0.290990,0.181193,7.500000,17.684373

-2.336793,4.362662,6.637258,16.256470,0.214158,0.443140,0.247542,7.496000,17.684373

-2.403854,-1.711108,9.784313,16.247646,-0.345146,-0.069267,0.000798,7.480000,17.684373

-2.291288,0.978499,10.996194,16.253529,-0.222574,-0.069800,-0.392767,7.484000,17.684373

1.013839,2.326895,6.057663,16.253529,0.367641,0.122586,-0.359726,7.488000,17.684373

-0.138165,1.024005,4.572751,16.247646,-0.171679,-0.422863,-0.486029,7.480000,17.684373

1.725160,-5.514399,15.031801,16.250587,-0.471183,-0.206496,-0.339475,7.484000,17.684373

-0.016019,4.827296,7.044411,16.259411,0.154471,-0.005050,-0.567833,7.492000,17.684373

0.228273,4.415352,5.787025,16.238823,-0.022194,-0.030897,-0.310963,7.496000,17.684373

-3.740275,0.921019,6.531877,16.241764,-0.650246,-0.162263,-0.148954,7.492000,17.612974

-3.376232,9.210181,23.502985,16.238823,0.087322,0.535602,0.112446,7.504000,17.612974

1.588644,6.051151,1.145478,16.262352,0.265852,0.104733,-0.111649,7.508000,17.612974

3.689076,-9.090162,19.472168,16.262352,-0.632126,-0.489745,0.010391,7.496000,17.612974

-6.477782,4.556659,16.998112,16.235882,-0.162886,0.171348,0.119907,7.504000,17.612974

-3.701954,7.785145,5.803791,16.238823,0.168060,0.268074,0.144421,7.496000,17.612974

0.345629,4.894356,6.881549,16.250587,-0.394442,0.021863,0.067947,7.492000,17.612974

-0.490233,0.401300,9.923224,16.253529,-0.113058,-0.014376,0.126035,7.496000,17.612974

1.756295,-0.357922,11.578183,16.253529,0.228014,0.044778,-0.002932,7.492000,17.612974

0.237853,3.359149,6.050478,16.227058,0.348455,-0.006116,0.105784,7.504000,17.612974

-0.004044,-3.358881,8.364067,16.235882,-0.275333,-0.015176,0.157744,7.500000,17.612974

-2.803822,-0.987812,14.567167,16.241764,-0.256681,-0.048483,0.213435,7.496000,17.612974

-1.206344,0.295919,12.452366,16.271175,0.696988,0.405302,0.176397,7.524000,17.612974

-5.548514,7.818675,2.790856,16.238823,0.240805,-0.106839,0.024247,7.524000,17.612974

-0.365692,-3.873810,0.364701,16.244705,-0.176209,-0.475090,0.048495,7.516000,17.612974

-0.693810,-0.705199,19.936802,16.224117,-0.200191,-0.332266,-0.022118,7.508000,17.612974

2.359840,-3.603173,9.039463,16.241764,0.334333,0.159890,-0.150553,7.508000,17.612974

-5.594020,-1.687157,8.093430,16.241764,-0.144767,-0.064205,-0.096994,7.512000,17.612974

-2.214647,0.051627,-0.044847,16.230000,0.022838,-0.093249,-0.421279,7.496000,17.612974

1.768270,-7.095111,11.609319,16.232941,0.019108,-0.264584,-0.401560,7.508000,17.612974

-3.009794,3.567515,4.093747,16.230000,-0.230834,-0.397016,-0.405024,7.508000,17.612974

-0.097450,-6.920275,14.267790,16.212351,0.157668,0.001345,-0.058890,7.516000,18.339059

-3.531908,3.009476,6.266029,16.230000,-0.057900,-0.079393,-0.541986,7.520000,18.339059

-0.672255,1.534144,6.788144,16.221176,0.380697,-0.265917,-0.294975,7.516000,18.339059

-1.124913,0.360584,13.072676,16.224117,-0.559382,-0.102575,-0.200914,7.520000,18.339059

-3.249296,7.586359,8.972402,16.218235,0.615717,0.500696,-0.301637,7.516000,18.339059

-0.241151,3.474110,13.875007,16.209410,0.132088,0.142570,0.149751,7.512000,18.339059

1.804196,-1.608122,11.903906,16.209410,0.647959,0.224374,-0.051695,7.524000,18.339059

0.575550,-2.719411,4.314089,16.212351,-0.273201,-0.599261,-0.221698,7.508000,18.339059

-4.018097,8.367135,9.504096,16.221176,0.277044,0.169483,0.059153,7.504000,18.339059

-2.322423,-2.417639,11.317126,16.215292,-0.592423,-0.023169,-0.073545,7.496000,18.339059

-2.837352,3.658526,7.667116,16.227058,0.255460,0.224641,-0.124173,7.516000,18.339059

2.438876,6.405614,7.053991,16.247646,-0.000877,-0.220618,-0.039171,7.504000,18.339059

-0.054340,-1.057267,5.822951,16.221176,-0.029388,0.219311,-0.023450,7.504000,18.339059

-5.232372,1.373677,10.833332,16.221176,0.011114,-0.028499,-0.230491,7.500000,18.339059

2.280804,2.750814,6.761798,16.197645,0.203233,-0.237938,-0.163343,7.512000,18.339059

0.019906,0.628826,8.804750,16.212351,-0.124782,0.007207,-0.192920,7.500000,18.339059

-2.190697,-1.466816,3.430326,16.209410,0.207497,0.088478,-0.269395,7.516000,18.339059

-0.274681,1.337752,13.314572,16.209410,-0.301446,-0.271246,-0.301104,7.512000,18.339059

0.503700,-5.588644,10.066926,16.194704,-0.793336,-0.512927,-0.399962,7.508000,18.339059

-3.642079,7.459422,16.219730,16.200586,0.133154,0.702674,-0.106853,7.516000,18.339059

0.271383,-3.461867,10.538745,16.224117,-0.317701,0.062631,-0.067683,7.520000,18.339059

-5.246742,3.445369,8.019184,16.203527,-0.253483,0.115125,-0.104455,7.516000,18.245250

-4.018097,0.087552,7.976073,16.197645,-0.187933,0.223575,-0.076743,7.520000,18.245250

-0.777636,-4.968334,10.428574,16.209410,-0.573238,-0.215822,-0.058357,7.516000,18.245250

-2.849328,4.393797,11.618898,16.188822,-0.302512,0.091143,-0.198249,7.520000,18.245250

-0.827931,-0.935121,8.131750,16.197645,0.076930,0.128981,-0.232090,7.536000,18.245250

-3.759435,-3.526532,7.767707,16.191763,0.121962,0.169749,-0.477502,7.540000,18.245250

-2.473310,-4.458195,9.123288,16.191763,-0.282261,-0.265650,-0.670687,7.540000,18.245250

-3.517538,0.851563,8.888577,16.200586,-0.153293,0.135376,-0.631251,7.540000,18.245250

0.374369,5.993670,11.099179,16.209410,-0.195661,0.002144,-0.680014,7.544000,18.245250

0.874928,4.326737,6.546247,16.203527,0.118498,0.322432,-0.545184,7.548000,18.245250

-1.000372,-5.056950,14.854570,16.188822,-0.127180,0.023195,-0.629119,7.552000,18.245250

0.532440,-2.829582,14.536033,16.203527,-0.308374,-0.520921,-0.762617,7.544000,18.245250

-2.276918,10.941781,11.003379,16.194704,0.537377,0.035985,-0.797257,7.544000,18.245250

-2.066156,12.520099,2.541774,16.182940,1.324774,-0.184113,-0.866537,7.552000,18.245250

1.662889,9.614940,12.382910,16.206469,0.576547,-0.362643,-0.637912,7.552000,18.245250

1.521583,-0.137580,19.330862,16.221176,0.492079,0.030123,-0.355462,7.564000,18.245250

2.752623,-0.925541,-2.863785,16.185881,-0.710466,-0.751411,-0.629919,7.552000,18.245250

-4.861144,4.206986,12.394885,16.188822,0.414272,0.372527,0.073009,7.556000,18.245250

-3.606153,-0.690829,6.984535,16.194704,0.363111,-0.374633,-0.043435,7.560000,18.245250

0.623451,-0.954281,9.453801,16.185881,0.455840,-0.551298,-0.301903,7.552000,20.522785

-2.779872,4.072865,7.274333,16.171175,-0.079217,-0.379163,0.024780,7.556000,20.522785

-3.306776,3.567515,18.324953,16.185881,-0.023793,-0.389555,0.206507,7.556000,20.522785

-6.178404,3.684871,3.650668,16.194704,-0.187134,-0.179050,0.614728,7.564000,20.522785

-3.040929,-5.250947,15.927539,16.171175,-0.186068,-0.217154,0.355460,7.556000,20.522785

-2.262548,8.010277,9.995075,16.168234,0.418269,-0.077528,0.528394,7.564000,20.522785

-4.190538,-2.264357,12.948134,16.197645,-0.778681,-0.269381,0.487891,7.564000,20.522785

-0.336952,4.360267,11.106364,16.179998,0.536844,0.150831,0.654431,7.572000,20.522785

-1.508116,-0.647719,6.792934,16.203527,-0.453330,-0.167059,0.575824,7.572000,20.522785

-1.153654,4.321947,13.970808,16.174116,0.322342,-0.391687,0.335741,7.580000,20.522785

2.173028,-4.659377,7.782077,16.174116,-0.525275,-0.435387,0.472703,7.576000,20.522785

-0.899782,-1.521901,10.098062,16.191763,0.053482,0.118589,0.196914,7.568000,20.522785

-2.487679,0.259993,11.925461,16.182940,-0.495431,-0.080459,0.140957,7.580000,20.522785

0.980309,-0.980627,12.045212,16.177057,0.018042,-0.078327,0.305631,7.580000,20.522785

-2.880463,8.029437,5.267306,16.162352,0.002854,0.197994,-0.066617,7.576000,20.522785

0.290543,-3.025973,14.593513,16.182940,-0.436809,-0.089785,0.171601,7.576000,20.522785

-3.907926,4.571029,13.788786,16.191763,-0.153027,0.269406,0.018651,7.576000,20.522785

-1.019533,1.503009,5.528364,16.194704,0.159001,0.301648,-0.054626,7.580000,20.522785

-2.693651,0.614456,5.794210,16.188822,0.073200,0.220377,0.228357,7.588000,21.991447

-0.066315,5.866735,11.127919,16.171175,-0.125048,0.297918,-0.189723,7.584000,21.991447

-0.269891,0.106712,7.295888,16.171175,0.314348,0.225174,0.098057,7.584000,21.991447

-0.095055,-0.951886,7.707831,16.182940,-0.405900,-0.091650,0.136161,7.588000,21.991447

-2.415829,0.173773,11.927856,16.174116,-0.598019,-0.006915,-0.072746,7.564000,21.991447

1.646124,5.313485,9.753179,16.177057,0.257325,0.152163,-0.085003,7.584000,21.991447

2.824474,-2.264357,13.623530,16.182940,0.101178,0.037850,-0.212905,7.584000,21.991447

1.212626,4.896751,4.290139,16.200586,-0.265208,-0.041289,-0.264599,7.584000,21.991447

0.098942,1.311407,12.521821,16.179998,0.024171,0.004543,-0.203312,7.580000,21.991447

-0.916547,4.812926,13.364868,16.177057,0.202701,0.212650,-0.308831,7.588000,21.991447

1.174305,2.892120,12.016472,16.174116,0.165662,0.318169,-0.172669,7.588000,21.991447

-0.013624,0.281549,6.232499,16.168234,-0.002742,-0.256591,-0.303236,7.588000,21.991447

-0.329767,-2.903827,10.090877,16.182940,-0.021927,0.026393,-0.213971,7.592000,21.991447

-3.838470,-2.123051,8.582014,16.177057,-0.439474,-0.056211,-0.482032,7.588000,21.991447

-0.547714,3.830968,11.333891,16.165293,0.114768,-0.067136,-0.311230,7.592000,21.991447

-0.356112,4.458463,16.320322,16.185881,0.171524,0.114325,-0.394099,7.600000,21.991447

0.479750,0.080367,10.548325,16.171175,-0.451731,-0.001586,-0.382375,7.600000,21.991447

-4.415670,1.040770,8.445498,16.188822,-0.429348,0.273670,-0.177732,7.592000,22.481874

-3.680399,6.846297,17.857925,16.182940,0.136351,0.019198,-0.108984,7.600000,22.481874

-0.657885,-2.815212,9.805869,16.162352,-0.067492,0.096472,0.086066,7.596000,22.481874

-2.092501,-2.808027,8.950847,16.203527,-0.119453,-0.220085,0.382372,7.592000,22.481874

1.607804,-2.202087,6.689948,16.179998,0.006318,-0.305353,0.538519,7.584000,22.481874

0.733622,0.058812,8.787985,16.200586,-0.026191,-0.094048,0.731705,7.584000,22.481874

-4.025282,2.528077,7.588080,16.179998,-0.172212,0.007740,0.486559,7.588000,22.481874

-0.236361,3.323223,8.646679,16.191763,0.291166,-0.093516,0.439662,7.592000,22.481874

1.023419,-1.162648,8.256291,16.191763,0.180051,-0.047950,0.047429,7.588000,22.481874

-0.095055,-5.837726,5.037385,16.185881,0.293564,0.050641,-0.154283,7.596000,22.481874

-1.579967,0.825218,8.701765,16.185881,-0.081615,-0.185179,-0.219033,7.592000,22.481874

-0.188461,-5.219811,6.632467,16.179998,-0.274534,-0.221418,-0.408488,7.592000,22.481874

0.058226,1.467083,7.861113,16.179998,-0.172745,-0.378364,-0.358660,7.588000,22.481874

0.034276,-0.968652,10.531560,16.197645,-0.246022,-0.057010,-0.394366,7.580000,22.481874

2.599342,-1.244079,12.811619,16.165293,0.333800,-0.023169,-0.506014,7.584000,22.481874

0.369579,-1.260844,8.059899,16.179998,0.010581,0.015201,-0.274991,7.588000,22.481874

-0.942892,8.925175,6.531877,16.177057,0.143279,0.140705,0.193450,7.580000,22.481874

-0.830326,5.076378,15.769467,16.179998,-0.285459,-0.067669,0.038636,7.584000,22.481874

-1.714088,-2.192507,12.059582,16.197645,-0.196460,0.049575,0.255270,7.588000,21.642854

-1.802704,9.478424,16.988533,16.185881,-0.078417,0.032788,0.344002,7.588000,21.642854

-0.317792,3.581886,10.581855,16.188822,-0.142102,0.243027,0.536921,7.584000,21.642854

1.001864,5.085958,10.620175,16.171175,0.262921,0.232901,0.430069,7.588000,21.642854

0.939593,-1.929054,15.769467,16.174116,-0.744307,-0.196903,0.466574,7.596000,21.642854

-1.127308,0.439620,8.754455,16.177057,-0.469318,0.192399,0.586749,7.584000,21.642854

-2.650541,7.275006,11.046489,16.168234,-0.068025,0.069027,0.197714,7.592000,21.642854

2.091598,-6.733463,5.377477,16.174116,-0.470917,-0.151871,0.240614,7.580000,21.642854

-2.269733,-2.743361,14.672548,16.188822,-0.185535,-0.085788,0.100721,7.584000,21.642854

0.518070,1.215606,9.250224,16.188822,-0.341416,0.057835,0.080737,7.588000,21.642854

-4.382140,2.089788,11.501543,16.191763,-0.080016,0.204390,-0.067683,7.588000,21.642854

2.292779,-1.735058,8.512558,16.171175,0.168060,0.055970,-0.132700,7.596000,21.642854

0.395924,1.251532,2.503454,16.168234,0.607191,0.155627,-0.416482,7.592000,21.642854

-0.677045,-1.876364,7.983259,16.174116,-0.158623,-0.092716,-0.687474,7.592000,21.642854

-0.744105,-3.045134,7.968888,16.165293,-0.063495,-0.187310,-0.864672,7.604000,21.642854

1.727555,-3.332536,8.570039,16.177057,-0.333156,-0.216888,-0.582222,7.592000,21.642854

-0.332162,5.057218,4.702082,16.177057,-0.110659,-0.019972,-0.237686,7.596000,21.642854

1.634149,2.096973,15.776652,16.159410,0.469962,0.033321,-0.243814,7.600000,21.642854

1.406622,4.491993,9.973520,16.162352,0.161132,-0.086055,-0.192920,7.608000,21.498901

-3.464847,-0.595029,9.417875,16.165293,-0.082148,0.123651,0.005861,7.604000,21.498901

-2.664911,1.768856,8.033554,16.179998,-0.287590,-0.232342,-0.045833,7.592000,21.498901

3.272343,-0.353132,8.043135,16.185881,0.390557,-0.101776,-0.000534,7.604000,21.498901

0.058226,-7.981268,6.251659,16.168234,0.016976,-0.386358,-0.108718,7.600000,21.498901

-6.894516,-8.673429,10.138777,16.171175,-0.790672,-0.376232,-0.019986,7.596000,21.498901

-4.944970,1.752090,8.103010,16.147646,-0.348610,0.030656,-0.158014,7.592000,21.498901

-1.702113,1.174891,9.061018,16.144705,0.068403,-0.029032,-0.216902,7.600000,21.498901

0.700091,10.338236,3.293810,16.185881,0.582942,0.566512,0.156146,7.600000,21.498901

-4.173773,1.409603,10.311218,16.159410,-0.029921,-0.170523,-0.087667,7.604000,21.498901

3.267552,0.636012,9.602292,16.168234,0.319145,-0.274177,-0.073545,7.600000,21.498901

-0.427963,1.543724,11.187795,16.174116,-0.147431,0.169216,0.022648,7.600000,21.498901

0.096547,-0.654904,15.096467,16.168234,-0.055768,-0.282704,-0.160412,7.596000,21.498901

1.521583,8.642562,8.622729,16.174116,0.171791,0.168950,-0.053027,7.612000,21.498901

-1.740433,-1.131513,11.738649,16.171175,-0.374990,0.029057,-0.072479,7.612000,21.498901

0.388739,-3.023578,9.980705,16.165293,-0.676626,-0.102042,-0.102056,7.608000,21.498901

-2.509235,3.440579,8.270661,16.168234,-0.640387,0.152429,-0.100458,7.604000,21.498901

-3.347492,2.844219,11.281200,16.162352,-0.296384,0.087412,-0.318690,7.604000,21.498901

1.303637,2.247860,6.426496,16.174116,-0.191131,-0.055678,-0.096461,7.600000,21.754511

0.398319,-2.276332,12.928974,16.165293,-0.241492,0.013069,-0.236886,7.604000,21.754511

-5.574860,5.735008,11.645244,16.162352,0.325007,0.075955,-0.333346,7.612000,21.754511

0.731227,4.796161,5.763075,16.147646,0.637834,-0.128689,-0.272592,7.620000,21.754511

1.344352,-1.986535,2.436393,16.168234,0.068936,-0.151338,0.012522,7.616000,21.754511

0.558785,-8.194426,15.462905,16.138823,-0.232699,-0.436453,0.043699,7.600000,21.754511

-1.496141,2.829849,12.962504,16.159410,-0.089875,-0.458303,0.088731,7.616000,21.754511

1.296451,1.529354,7.523415,16.153528,0.255460,-0.307485,0.321352,7.616000,21.754511

-1.469796,9.155096,3.461462,16.150587,0.492612,0.275269,0.523597,7.612000,21.754511

-0.710575,-1.296769,11.559023,16.141764,0.060143,-0.282704,0.276853,7.612000,21.754511

-0.698600,4.899147,10.454919,16.153528,0.070802,0.139906,0.398360,7.612000,21.754511

-2.322423,3.430999,2.948927,16.171175,0.479022,0.248356,0.420476,7.616000,21.754511

-0.205226,-2.808027,12.323034,16.171175,-0.085345,-0.617114,0.407153,7.604000,21.754511

2.877164,-3.126564,14.272580,16.165293,0.298627,-0.241136,0.505744,7.612000,21.754511

0.870138,1.057535,4.361989,16.153528,0.258924,0.140439,0.531858,7.620000,21.754511

-5.807177,4.060890,7.159372,16.162352,-0.285992,0.184138,0.351463,7.612000,21.754511

-1.661398,-0.686039,10.268107,16.168234,-0.139970,-0.027966,0.161208,7.604000,21.754511

3.212467,1.536539,9.734018,16.179998,0.272247,0.233434,0.061285,7.612000,22.077250

1.217416,-8.117785,5.003854,16.147646,0.125693,-0.201166,-0.078608,7.616000,22.077250

-3.848051,2.118529,6.172624,16.179998,0.355916,-0.070333,-0.195851,7.612000,22.077250

2.623292,-1.845229,9.575947,16.156469,0.048685,0.200925,-0.132433,7.608000,22.077250

1.983822,5.598492,7.952123,16.159410,0.139282,0.086080,0.003196,7.612000,22.077250

-1.999095,3.363939,4.922423,16.162352,0.332201,0.300316,-0.077542,7.616000,22.077250

3.962108,4.384217,8.244316,16.165293,0.419867,-0.051947,0.009858,7.604000,22.077250

1.298846,5.684713,8.433522,16.141764,0.493145,0.362402,-0.043968,7.616000,22.077250

0.108522,-6.371816,10.215417,16.165293,-0.491168,-0.144676,-0.127903,7.616000,22.077250

0.055831,5.100328,10.826147,16.162352,0.140615,0.176944,-0.136697,7.620000,22.077250

-0.545319,2.094578,7.231222,16.138823,-0.310240,0.251020,-0.027980,7.612000,22.077250

-2.760712,0.707862,11.101574,16.159410,0.315414,0.270206,-0.288047,7.620000,22.077250

-2.372719,1.277877,13.822316,16.150587,-0.082947,0.225973,-0.472972,7.616000,22.077250

0.747992,1.033585,12.821198,16.159410,-0.427217,0.203057,-0.325619,7.612000,22.077250

-1.953590,5.909845,12.919394,16.153528,-0.072822,0.589961,-0.613664,7.612000,22.077250

0.850978,0.985684,6.529481,16.159410,-0.069358,0.139106,-0.664825,7.616000,22.077250

-1.570387,-4.173188,11.580578,16.168234,-0.142102,0.072491,-0.767413,7.616000,22.077250

-1.788334,3.198682,7.729386,16.168234,-0.031254,-0.017574,-0.705061,7.616000,21.782734

-1.879345,1.323382,11.712304,16.153528,-0.108794,-0.186244,-0.517471,7.624000,21.782734

0.975519,-2.877482,13.094231,16.168234,-0.059765,-0.303488,-0.466844,7.624000,21.782734

2.982545,7.622284,14.969531,16.162352,0.137151,-0.034894,-0.241150,7.632000,21.782734

-1.642238,7.286981,7.523415,16.144705,-0.201523,0.055970,-0.008262,7.624000,21.782734

-1.932035,4.856036,12.931370,16.147646,-0.022194,0.029857,0.130832,7.624000,21.782734

-4.073183,3.110067,12.009287,16.147646,-0.001410,-0.192373,0.097257,7.620000,21.782734

1.013839,-3.789985,6.060058,16.156469,0.358315,-0.263252,0.314691,7.624000,21.782734

-4.774923,-2.082336,4.532035,16.165293,0.203500,-0.267782,0.287245,7.624000,21.782734

-0.681835,-2.841557,13.673825,16.147646,-0.130378,-0.413004,0.382639,7.620000,21.782734

-1.385971,-0.063334,5.818161,16.147646,-0.255615,-0.054878,0.384770,7.612000,21.782734

0.970729,-0.314811,11.250066,16.156469,-0.187134,-0.198235,0.251006,7.620000,21.782734

-2.590665,-6.156264,13.575629,16.156469,-0.359535,0.062365,0.295506,7.632000,21.782734

-6.214330,-3.897761,4.488925,16.144705,-0.219642,0.062099,0.286712,7.628000,21.782734

-4.827614,4.990157,9.439431,16.144705,0.154471,-0.070866,0.007726,7.620000,21.782734

3.739371,-0.753100,10.727951,16.165293,0.329270,-0.201699,-0.087667,7.624000,21.782734

0.561180,7.308536,9.070598,16.138823,0.022838,-0.033029,-0.033309,7.616000,21.782734

-0.959657,-0.312416,12.598461,16.150587,0.025769,0.124717,-0.075677,7.636000,21.782734

0.391134,-2.259567,5.068520,16.153528,-0.061097,-0.069267,0.074342,7.628000,22.306749

-3.263666,2.992711,10.739926,16.141764,-0.515682,-0.039690,0.245677,7.620000,22.306749

-2.478099,4.879986,13.738491,16.141764,0.442517,0.594224,0.333077,7.624000,22.306749

0.568365,12.096180,7.264753,16.132940,0.457972,0.281131,0.270725,7.632000,22.306749

1.274896,-5.876046,9.226274,16.162352,-0.637722,-0.145476,0.351996,7.632000,22.306749

-2.605036,-3.794775,10.035790,16.147646,-0.498629,-0.251528,0.322685,7.632000,22.306749

-4.118688,0.154613,9.961545,16.165293,-0.066427,0.090077,0.190519,7.628000,22.306749

0.288148,-3.382831,11.444062,16.150587,0.384694,-0.254725,-0.020252,7.628000,22.306749

-3.536698,8.149188,6.275609,16.147646,0.582676,0.534803,0.104985,7.632000,22.306749

2.426901,-0.975837,8.026369,16.153528,-0.308907,-0.231810,0.053291,7.624000,22.306749

-0.023204,0.418065,8.732900,16.147646,0.149941,0.026659,-0.088733,7.632000,22.306749

1.416202,4.338712,8.047924,16.153528,-0.031786,0.059434,0.043432,7.640000,22.306749

-2.868488,3.876473,8.320956,16.171175,0.070802,0.316304,-0.018654,7.636000,22.306749

3.025656,-0.350737,12.598461,16.147646,-0.013933,-0.115099,-0.171870,7.636000,22.306749

-0.966842,6.896593,8.043135,16.168234,-0.126381,0.350944,-0.068482,7.644000,22.306749

-2.511630,-6.371816,8.720924,16.147646,-0.082414,0.004809,-0.187591,7.652000,22.306749

2.335890,6.278678,18.815933,16.153528,-0.274267,-0.390888,-0.218501,7.648000,22.306749

-2.830167,2.762789,13.331338,16.153528,-0.190598,0.035719,0.303766,7.640000,22.677089

-1.881740,-1.289584,8.601173,16.162352,0.144878,-0.179050,0.207839,7.640000,22.677089

-3.141520,1.929322,9.561577,16.150587,-0.418690,-0.031696,0.320553,7.632000,22.677089

0.403109,-0.444142,14.116904,16.150587,-0.421088,0.078619,0.416746,7.644000,22.677089

-3.807335,-6.877164,5.669670,16.156469,-0.485306,0.112460,0.331744,7.644000,22.677089

-5.392838,-1.969770,10.938713,16.162352,-0.461324,-0.046618,-0.017588,7.636000,22.677089

-2.008676,3.122042,4.232658,16.159410,0.177653,0.246491,0.055956,7.644000,22.677089

-2.305658,-8.323756,8.895761,16.150587,0.039093,-0.074330,-0.348534,7.636000,22.677089

2.850819,-2.743361,11.738649,16.159410,0.062008,-0.259522,-0.336810,7.644000,22.677089

-0.248336,-4.515676,12.864308,16.144705,-0.351275,0.248622,-0.270994,7.640000,22.677089

-2.777477,16.536545,5.868456,16.147646,0.439053,0.798334,-0.189190,7.648000,22.677089

-0.540529,-9.164409,11.697934,16.150587,-0.270004,-0.121228,-0.464445,7.644000,22.590650

2.292779,3.507640,13.381633,16.156469,0.179518,0.083416,-0.436467,7.656000,22.590650

-1.508116,-9.605092,11.408137,16.153528,-0.809857,-0.297093,-0.323487,7.644000,22.590650

-1.522487,5.215289,7.827582,16.153528,0.678603,0.090344,-0.166007,7.656000,22.590650

-0.712970,9.284428,10.366303,16.138823,0.064939,0.046644,-0.178265,7.648000,22.590650

5.372775,2.456226,2.477109,16.127058,0.640765,0.091409,-0.164142,7.636000,22.590650

3.851937,1.893397,14.842595,16.138823,0.418002,-0.122826,-0.155615,7.644000,22.590650

-1.694928,-2.326628,4.680527,16.138823,-0.240160,-0.232342,-0.115380,7.644000,22.590650

-1.388366,-3.813935,4.041057,16.159410,-0.260678,-0.278441,0.054890,7.636000,22.590650

-0.427963,-0.607004,11.638059,16.153528,-0.191131,-0.229145,0.091928,7.628000,22.590650

-1.100963,0.746182,14.131274,16.141764,-0.205786,-0.026101,-0.050896,7.636000,22.590650

1.780245,2.197564,12.629597,16.138823,-0.547391,-0.146542,0.045564,7.640000,22.590650

-3.661239,0.830008,11.130315,16.147646,-0.511419,0.220910,-0.020785,7.640000,22.590650

-4.449201,2.554422,13.695380,16.129999,0.356982,0.316837,-0.190256,7.640000,22.590650

2.343075,6.475070,5.434958,16.127058,0.359114,0.099936,-0.038105,7.636000,22.590650

-0.241151,5.387731,3.243515,16.127058,0.245601,0.208386,-0.027980,7.632000,22.590650

1.909576,-1.694342,15.561101,16.138823,0.477157,-0.238738,-0.064752,7.644000,22.590650

-0.200436,-7.040026,8.919712,16.115294,-0.451998,-0.437252,-0.283784,7.636000,22.590650

-2.166747,5.294325,11.139894,16.127058,-0.107728,0.081284,0.209971,7.632000,22.364376

-2.003886,12.050674,9.611873,16.153528,-0.022727,0.215048,0.109248,7.640000,22.364376

-0.506998,5.208104,11.094389,16.144705,0.376701,0.063964,0.025046,7.636000,22.364376

0.015116,2.705308,13.173266,16.127058,0.458505,0.172414,0.068746,7.648000,22.364376

-3.043324,2.801109,11.091994,16.141764,-0.338751,0.240362,-0.000268,7.632000,22.364376

-2.583480,0.803663,13.855846,16.144705,-0.396840,0.063964,-0.019986,7.636000,22.364376

-0.506998,-0.480068,7.990444,16.127058,-0.104797,-0.132952,-0.045566,7.632000,22.364376

-1.764384,6.491835,10.450130,16.129999,0.073733,0.135109,-0.055426,7.624000,22.364376

0.841398,2.985526,10.011841,16.132940,-0.224972,0.003210,0.062351,7.620000,22.364376

-0.526159,0.077972,12.476315,16.135881,0.068137,0.041847,-0.030378,7.632000,22.364376

0.039066,3.840548,11.420112,16.112352,-0.120252,-0.042088,0.164140,7.628000,22.364376

-3.091224,8.977864,6.232499,16.138823,0.515527,0.249688,0.151349,7.628000,22.364376

-1.728458,-0.264516,9.846584,16.127058,0.147543,0.094607,0.133496,7.632000,22.364376

0.343234,2.434671,12.962504,16.141764,0.075598,-0.329068,-0.161744,7.644000,22.364376

4.242325,-3.334931,8.970007,16.127058,-0.030721,-0.218220,-0.016522,7.644000,22.364376

-3.081644,5.270374,10.234577,16.132940,0.169926,0.179875,-0.017055,7.648000,22.364376

-0.863856,3.308853,8.955637,16.115294,-0.145033,0.084748,0.087665,7.644000,22.364376

-1.548832,-2.673906,11.482383,16.115294,0.173390,-0.080459,0.104718,7.648000,22.364376

-1.955985,3.395074,3.700963,16.132940,0.120630,-0.098845,0.297637,7.644000,21.745688

0.858163,-0.192665,9.923224,16.132940,0.267717,-0.108704,0.219297,7.640000,21.745688

3.665126,1.213211,10.239367,16.135881,0.750281,-0.069001,0.160409,7.652000,21.745688

-1.761989,0.619246,2.172941,16.127058,0.151806,-0.152670,0.192118,7.652000,21.745688

0.146842,2.132899,16.571798,16.097647,-0.459725,0.063964,0.369316,7.640000,21.745688

-2.423014,8.015067,12.212864,16.097647,-0.021394,0.426619,0.228890,7.636000,21.745688

1.500028,3.114857,7.729386,16.129999,0.087589,0.364800,0.203842,7.652000,21.745688

0.142052,-0.793815,8.809541,16.097647,-0.050705,0.007474,0.097790,7.640000,21.745688

0.860558,2.360425,9.669353,16.118235,-0.250819,0.235566,0.084467,7.636000,21.745688

-1.220714,-2.946938,13.364868,16.118235,0.071867,0.169216,-0.109251,7.644000,21.745688

0.309703,-0.257331,9.235854,16.109411,0.125426,0.058635,-0.306700,7.644000,21.745688

-0.360902,3.308853,8.354486,16.121176,-0.107728,0.029857,-0.420746,7.644000,21.745688

0.448614,5.162599,8.067084,16.132940,0.195506,-0.022104,-0.698666,7.632000,21.745688

3.430414,-0.705199,8.234735,16.124117,0.332468,-0.106306,-0.684810,7.640000,21.745688

0.154027,-7.665126,9.571157,16.124117,-0.473581,-0.047418,-0.564902,7.636000,21.745688

-1.268615,-2.185322,10.627360,16.127058,-0.327560,-0.420199,-0.476703,7.628000,21.745688

0.738412,-0.923146,10.246552,16.118235,-0.180206,-0.216355,-0.335478,7.640000,21.745688

-3.242111,-0.326786,15.276093,16.109411,0.039093,-0.074064,-0.098326,7.640000,21.884869

0.731227,3.016661,6.189389,16.103529,-0.038182,-0.183580,0.208639,7.632000,21.884869

-5.076695,4.149505,7.461144,16.124117,0.294097,0.377857,0.351463,7.636000,21.884869

-1.431476,-3.933686,7.681486,16.091763,-0.013134,-0.346655,0.388767,7.644000,21.884869

-0.909362,-4.173188,7.149792,16.124117,-0.750969,-0.559025,0.365852,7.628000,21.884869

-4.439620,-1.330299,11.250066,16.106470,-0.729119,-0.061807,0.397561,7.620000,21.884869

-1.625473,4.568634,15.118022,16.112352,0.278909,0.190267,0.375444,7.632000,21.884869

-0.394432,8.086918,12.600857,16.094706,0.516860,0.254218,0.182259,7.628000,21.884869

1.523978,2.520892,6.242079,16.100588,0.345791,-0.090584,-0.001867,7.636000,21.884869

1.260526,-3.619938,3.420746,16.115294,-0.041379,-0.316811,0.141490,7.632000,21.884869

-0.214806,2.020333,12.816408,16.088821,-0.256681,-0.254192,0.101254,7.624000,21.884869

-2.389484,0.336634,10.289662,16.106470,-0.303312,0.037850,0.118841,7.628000,21.884869

1.157540,8.520416,12.660732,16.109411,0.220021,0.026659,0.232087,7.636000,21.884869

0.625846,2.757999,6.709108,16.106470,0.592802,0.539866,0.152149,7.632000,21.884869

1.773060,-0.319601,-0.243634,16.103529,0.261589,-0.241935,-0.050629,7.636000,21.884869

0.740807,-4.853373,10.670471,16.109411,-0.232433,-0.405277,-0.062886,7.636000,21.884869

-0.868646,5.289535,9.712463,16.103529,-0.189799,-0.049016,-0.032776,7.640000,21.884869

3.066371,3.287298,8.071875,16.088821,0.087589,0.160956,0.143888,7.648000,21.884869

-4.853959,2.611902,11.594949,16.082939,-0.096537,0.372527,0.009058,7.644000,21.029210

-0.339347,1.328172,9.310100,16.109411,-0.220175,0.013602,0.143355,7.640000,21.029210

-2.509235,5.555382,7.480304,16.100588,0.354051,0.486840,-0.182262,7.648000,21.029210

2.343075,-2.568525,6.512716,16.079998,0.195772,-0.154802,-0.235821,7.652000,21.029210

0.415084,-1.826069,8.067084,16.091763,-0.457061,-0.499338,-0.191588,7.644000,21.029210

1.440153,3.598651,14.126484,16.082939,-0.149829,0.096739,-0.046099,7.644000,21.029210

-3.330726,0.942574,8.919712,16.091763,-0.217777,0.333357,-0.061288,7.648000,21.029210

-0.861461,-0.638139,19.419477,16.088821,-0.151162,-0.019705,-0.003732,7.652000,21.029210

-3.093619,8.249779,4.488925,16.082939,-0.475713,0.161489,-0.026381,7.640000,21.029210

0.247433,0.398905,15.070122,16.068233,0.087056,0.168684,0.151616,7.648000,21.029210

-0.724945,2.484967,10.282477,16.079998,-0.031254,0.056769,0.158544,7.648000,21.029210

4.436322,1.038375,10.926738,16.112352,0.376967,-0.045019,-0.149487,7.656000,21.029210

-3.565438,1.519774,10.229787,16.094706,-0.109860,0.410898,0.024513,7.656000,21.029210

-4.322265,2.695728,9.518467,16.062351,-0.388047,0.105532,-0.134032,7.652000,21.029210

-1.972750,3.787857,10.143566,16.068233,0.019641,0.257682,-0.111383,7.652000,21.029210

0.752782,-3.500187,9.757969,16.062351,-0.229235,-0.032229,-0.123107,7.648000,21.029210

-3.026559,1.919742,10.287268,16.071175,0.196838,0.211318,-0.280053,7.656000,21.029210

1.907181,-6.618503,-0.907054,16.068233,0.031898,-0.320808,-0.525998,7.648000,21.029210

-0.435148,1.194051,8.179650,16.065292,0.285837,0.086347,-0.422344,7.652000,22.427008

0.494120,-0.458512,9.386741,16.079998,-0.193529,-0.204097,-0.479367,7.660000,22.427008

2.458036,-1.052477,13.185242,16.059410,0.101711,-0.132952,-0.165475,7.668000,22.427008

-3.733090,4.183036,7.346183,16.074116,-0.379520,0.245691,0.042366,7.660000,22.427008

-1.771569,2.336475,7.444379,16.068233,0.366042,-0.321074,-0.080739,7.660000,22.427008

0.395924,3.811807,12.258368,16.062351,0.217889,-0.122027,0.163873,7.664000,22.427008

-1.304540,1.342542,7.834767,16.077057,0.561359,-0.169191,0.290443,7.668000,22.427008

2.865189,4.192616,8.019184,16.062351,0.046021,-0.254992,0.430069,7.660000,22.427008

2.192189,0.094737,8.404782,16.065292,0.014312,-0.109237,0.373579,7.656000,22.427008

-2.655331,3.328013,10.521979,16.074116,0.119031,0.134576,0.329613,7.664000,22.427008

-0.995582,-2.496674,11.434483,16.056469,-0.367529,0.058102,0.243279,7.664000,22.427008

-0.789611,7.622284,5.252936,16.041763,0.219488,0.048509,0.183325,7.664000,22.427008

3.394488,-0.063334,10.260922,16.071175,-0.404834,-0.062606,0.066348,7.664000,22.427008

-0.940497,0.719837,11.434483,16.068233,0.074266,0.105265,-0.141493,7.664000,22.427008

1.638939,4.068075,8.373647,16.068233,0.305822,0.210252,-0.092997,7.676000,22.427008

-3.033744,-8.223166,5.945097,16.059410,-0.665701,-0.150272,-0.224896,7.656000,22.427008

-1.144074,-0.626164,10.919553,16.035881,0.236808,0.003210,-0.310697,7.672000,23.466315

2.580182,0.219278,5.336762,16.044704,0.204832,0.147633,-0.058090,7.672000,23.466315

-0.202831,-0.010644,7.600055,16.059410,0.046287,-0.015176,-0.047165,7.672000,23.466315

-3.448082,11.099852,8.883786,16.032940,0.463301,0.499896,-0.009594,7.676000,23.466315

2.846029,0.693492,5.106840,16.029999,0.264253,0.205988,-0.110050,7.676000,23.466315

1.962267,2.092183,12.215259,16.056469,0.415071,0.107930,-0.069815,7.684000,23.466315

0.841398,-2.858322,5.092470,16.032940,0.246933,0.125250,-0.115380,7.680000,23.466315

-0.133375,2.398746,5.667274,16.056469,-0.048840,0.073024,-0.232357,7.676000,23.466315

3.150197,10.513072,1.404140,16.029999,0.256259,0.082350,-0.272060,7.672000,23.466315

0.098942,-7.372933,14.088163,16.035881,-0.109860,0.205722,-0.420746,7.672000,23.466315

0.582735,3.136412,9.760364,16.044704,0.055347,-0.034627,-0.679747,7.672000,23.466315

4.007614,2.398746,3.454277,16.041763,0.170192,0.129247,-0.317358,7.676000,23.466315

-2.013466,-6.328705,11.106364,16.047646,-0.088276,0.049841,-0.672020,7.668000,23.466315

0.652191,2.178404,13.206797,16.044704,0.002054,-0.233675,-0.997104,7.680000,23.466315

-2.226622,3.363939,6.951005,16.053528,-0.240160,0.142037,-0.532393,7.676000,23.466315

-0.085475,-5.991007,10.763877,16.032940,-0.663303,-0.325604,-0.362657,7.672000,23.466315

-5.773646,0.882698,14.478552,16.029999,0.135818,0.039982,-0.432204,7.684000,24.230406

-2.387089,-9.650598,7.485095,16.035881,-0.062163,-0.401013,-0.224629,7.688000,24.230406

-5.390443,8.376715,9.719648,16.041763,0.118498,0.190267,0.133230,7.684000,24.230406

-0.811166,-5.794616,9.053833,16.038822,-0.139970,-0.266716,0.025046,7.692000,24.230406

-0.550109,-1.416520,9.168794,16.024117,0.366575,-0.102309,-0.086602,7.688000,24.230406

-1.587152,1.773646,9.734018,16.053528,-0.519679,-0.154802,-0.207309,7.684000,24.230406

0.419874,0.612061,15.544335,16.044704,-0.142635,-0.399148,-0.574228,7.680000,24.230406

0.654586,0.782108,13.005615,16.035881,-0.143967,0.233967,-0.632850,7.692000,24.230406

0.439034,1.661080,12.660732,16.062351,0.447313,0.099670,-0.716785,7.692000,24.230406

-1.850604,6.218802,4.908053,16.041763,-0.047774,0.024527,-0.407955,7.684000,24.230406

-1.381181,-3.093034,8.179650,16.035881,0.059077,-0.258989,-0.466577,7.684000,24.230406

-0.653095,-2.340998,9.702883,16.038822,0.647693,-0.263785,-0.459649,7.684000,24.230406

2.168238,0.334239,7.681486,16.032940,-0.028855,-0.628039,-0.157747,7.680000,24.230406

-3.551068,0.906649,9.032277,16.021175,0.019108,-0.128955,0.252605,7.680000,24.230406

-1.960775,4.245306,14.286950,16.021175,-0.002476,-0.290431,0.243279,7.688000,24.230406

1.459313,-3.600778,8.205996,16.018234,-0.122650,-0.258456,0.303233,7.688000,24.687253

-7.375914,-2.738571,11.556628,16.018234,-0.026191,-0.030630,0.173466,7.684000,24.687253

1.100060,0.578531,8.146120,16.029999,0.229080,-0.626174,-0.002932,7.676000,24.687253

2.295175,2.346056,7.537785,16.015293,0.636501,-0.091917,0.174798,7.692000,24.687253

-2.593060,-0.096864,13.635505,16.015293,0.215757,0.010405,0.209172,7.688000,24.687253

-3.127150,-6.666403,5.755890,16.024117,-0.116255,-0.196104,-0.067150,7.684000,24.687253

0.388739,0.990474,13.678616,16.024117,-0.069091,-0.028499,0.041300,7.692000,24.687253

-0.578849,-2.477514,9.705278,16.029999,-0.301713,-0.168392,0.081003,7.688000,24.687253

-5.799992,1.069510,7.018065,16.035881,-0.645716,0.160956,0.115110,7.676000,24.687253

-3.002609,9.593385,15.151552,16.018234,0.349255,0.070092,-0.033043,7.692000,24.687253

3.176542,-5.420993,12.174543,16.003529,-0.069891,-0.073264,-0.044234,7.684000,24.687253

0.206717,-1.806908,8.215575,16.012352,-0.053636,-0.059408,0.041833,7.684000,24.687253

0.565970,-1.069242,16.384987,16.029999,-0.166616,-0.177718,0.305098,7.688000,24.687253

-6.829850,3.871683,11.436877,16.029999,-0.329425,0.015201,0.194250,7.684000,24.687253

1.380277,-0.944701,5.228986,16.027058,0.198704,-0.098845,0.542250,7.676000,24.687253

-1.625473,7.445052,12.701447,16.012352,-0.131976,-0.129488,0.419411,7.676000,24.687253

1.174305,3.397469,13.034355,16.018234,-0.091208,-0.038091,0.445524,7.684000,24.687253

0.436639,-3.859440,9.609477,16.032940,0.031632,0.028791,0.295239,7.676000,23.894919

-1.757199,3.268138,11.693144,16.038822,0.056946,0.142837,0.198247,7.680000,23.894919

-1.508116,-0.623769,4.709267,16.027058,-0.173811,-0.095914,0.176663,7.680000,23.894919

0.419874,4.127950,10.924343,16.044704,0.135818,-0.008248,-0.056225,7.680000,23.894919

2.628082,-7.032841,6.495951,16.032940,-0.158623,-0.482284,0.109515,7.680000,23.894919

-0.389642,-2.285912,9.266990,16.021175,-0.269205,-0.268848,0.217432,7.676000,23.894919

-1.326095,-0.630954,13.585210,16.018234,0.004719,-0.063938,0.206774,7.684000,23.894919

1.576669,1.840706,4.996669,16.018234,0.248532,0.022129,0.206774,7.676000,23.894919

-0.020809,-5.557509,18.571640,16.047646,-0.073355,0.059434,0.410884,7.680000,23.894919

-2.700836,-7.844752,7.635981,16.021175,-0.405367,-0.211292,0.325083,7.680000,23.894919

-5.138966,14.227748,6.843229,16.018234,0.128357,0.678693,0.361588,7.672000,23.894919

-1.982330,-1.890734,7.703041,16.018234,-0.097336,0.121786,0.042100,7.672000,23.894919

1.787430,2.607113,12.962504,16.012352,0.422799,-0.048483,-0.074078,7.680000,23.894919

1.694025,-1.749428,8.747270,16.018234,-0.472782,0.244625,-0.042369,7.680000,23.894919

-2.226622,-1.905104,10.119617,16.018234,-0.026457,0.036518,0.029043,7.676000,23.894919

-2.796637,5.493111,13.491804,16.024117,-0.030721,0.225973,-0.089000,7.684000,23.894919

1.052159,-3.248710,7.018065,16.024117,0.001788,0.051973,-0.081272,7.680000,23.894919

0.046251,7.013949,9.245434,16.009411,0.204832,0.085014,0.051159,7.672000,23.204597

-0.813561,-2.875087,11.321917,16.021175,-0.336353,0.064763,0.200112,7.676000,23.204597

-0.825536,-0.707594,11.072834,16.006470,-0.029655,0.017066,0.281916,7.676000,23.204597

-2.403854,7.799515,9.343630,15.991764,0.117699,0.372261,0.338939,7.676000,23.204597

0.022301,-3.502582,9.101733,16.018234,0.031365,0.119388,0.400758,7.680000,23.204597

-0.722550,2.063443,9.159214,16.006470,0.131289,0.255284,0.434332,7.676000,23.204597

0.692906,2.077813,9.753179,16.015293,0.093717,0.258481,0.375977,7.676000,23.204597

-1.100963,0.700677,10.577065,16.015293,0.017243,0.234500,0.201711,7.680000,23.204597

0.465380,1.184471,10.090877,16.027058,-0.014733,0.271538,-0.051695,7.676000,23.204597

1.174305,0.099527,9.317285,16.009411,0.046554,0.321899,-0.345337,7.680000,23.204597

0.668956,3.586675,7.406059,16.000587,0.083059,0.371195,-0.566501,7.680000,23.204597

0.479750,-1.045292,13.429533,16.018234,-0.142102,0.388782,-0.772210,7.672000,23.204597

1.334772,-0.178295,11.154264,16.012352,-0.133042,0.247823,-0.822038,7.680000,23.204597

-2.420619,3.830968,5.992997,16.015293,-0.099734,0.356540,-0.714654,7.672000,23.204597

-1.754804,2.602323,8.435918,16.018234,0.043622,0.133777,-0.616063,7.680000,23.204597

1.739530,-4.467775,11.697934,16.024117,0.024171,-0.155601,-0.631784,7.676000,23.204597

0.084571,-0.369897,7.221642,16.003529,-0.055502,0.019198,-0.581422,7.676000,22.870977

-1.876950,-3.682209,9.310100,16.003529,-0.264941,-0.079127,-0.597943,7.676000,22.870977

-0.801586,-3.143329,13.611555,15.997646,-0.463456,-0.260055,-0.400761,7.668000,22.870977

-1.896110,-2.228432,15.908379,16.009411,-0.271070,0.099670,-0.225962,7.680000,22.870977

-4.245624,-4.518070,2.280717,15.994705,-0.556984,-0.283237,-0.184660,7.664000,22.870977

-4.274364,1.222791,12.723002,16.009411,-0.567376,-0.274177,-0.222497,7.668000,22.870977

2.704723,5.756564,11.269226,16.006470,0.373769,-0.041555,-0.220366,7.672000,22.870977

2.604132,-0.657299,9.872930,16.009411,0.151007,0.247024,-0.174001,7.672000,22.870977

-2.679281,-0.599819,8.043135,16.015293,0.325007,-0.016774,-0.536657,7.680000,22.870977

1.832936,7.169625,6.390571,16.009411,-0.066160,-0.296293,-0.516672,7.664000,22.870977

5.166803,-3.607963,10.239367,15.997646,0.236808,0.019465,-0.725579,7.672000,22.870977

0.901273,-4.436640,8.196416,16.000587,-0.146365,-0.315479,-0.857478,7.684000,22.870977

-0.689020,4.561449,12.157778,16.006470,-0.122117,-0.361310,-0.496154,7.672000,22.870977

-0.030389,1.253927,16.016153,16.018234,-0.165284,-0.221684,-0.614730,7.684000,22.870977

-0.873436,-1.524296,8.661049,16.018234,0.030832,-0.029565,-0.106586,7.688000,22.870977

-4.537817,-7.004101,8.962822,16.021175,-0.697410,-0.319742,-0.022384,7.680000,22.870977

-4.279154,-1.126723,15.573076,16.000587,-0.239094,-0.209160,0.194783,7.680000,22.870977

-3.005004,8.891644,13.666640,15.994705,0.187779,-0.150539,0.109248,7.692000,22.627867

1.030604,-6.326310,4.915238,15.997646,0.500073,-0.003451,0.096192,7.684000,22.627867

-3.160680,2.746024,6.419311,16.032940,0.593601,0.050907,0.084467,7.684000,22.627867

-0.607589,-4.065412,6.943820,16.021175,-0.315569,-0.507865,0.022914,7.684000,22.627867

-0.624354,-5.864071,12.045212,16.018234,-0.005940,-0.121228,0.127634,7.676000,22.627867

0.427059,-2.520624,17.268749,16.000587,-0.498895,-0.633901,-0.155882,7.680000,22.627867

-0.598009,3.986644,0.752695,15.994705,0.538710,0.038383,0.353061,7.692000,22.627867

-1.927245,-2.518229,10.042975,16.009411,-0.306776,-0.054346,0.340005,7.680000,22.627867

0.918038,7.069034,4.517665,16.009411,0.775062,-0.035427,0.446856,7.684000,22.627867

-2.633776,-1.725478,13.566050,16.009411,-0.357404,-0.013044,-0.022917,7.672000,22.627867

-0.233966,-2.003300,8.356882,16.012352,0.770266,-0.250462,-0.167606,7.692000,22.627867

1.056949,4.137530,7.338998,16.009411,-0.647315,-0.192640,0.149751,7.676000,22.627867

-3.311566,-0.089679,9.298124,15.994705,0.703650,0.123918,-0.102323,7.684000,22.627867

3.619620,6.860667,9.484936,16.000587,0.063607,-0.142545,-0.166274,7.680000,22.627867

1.725160,0.209698,8.304192,15.997646,0.087855,0.047443,-0.176399,7.676000,22.627867

1.018629,-1.205759,7.413244,15.994705,-0.034718,-0.131087,-0.044234,7.676000,22.627867

0.544415,1.277877,13.336127,15.997646,0.028434,-0.041022,0.177996,7.668000,22.627867

-4.738998,1.993988,8.922107,16.009411,-0.237495,0.059167,0.188121,7.668000,22.781934

0.436639,4.920702,5.442143,16.018234,0.164330,0.099403,0.490823,7.676000,22.781934

-1.067433,-6.216139,10.538745,16.000587,-0.224439,-0.328003,0.604336,7.672000,22.781934

-1.141679,-2.199692,10.651311,15.997646,-0.061630,-0.279773,0.409552,7.680000,22.781934

-0.681835,3.145992,9.417875,15.997646,0.080927,0.042913,0.182792,7.680000,22.781934

2.072438,-0.662089,7.913803,16.003529,0.038826,-0.080459,0.029043,7.676000,22.781934

0.355209,1.656290,10.926738,16.006470,-0.150362,0.234233,-0.065285,7.680000,22.781934

0.733622,-1.941030,7.635981,15.982941,-0.158623,-0.018906,-0.395965,7.676000,22.781934

1.368302,5.296720,10.201047,15.988823,0.262655,0.394377,-0.506014,7.676000,22.781934

1.159935,2.245465,10.471684,15.994705,-0.477312,0.058901,-0.482831,7.672000,22.781934

0.860558,-1.644047,11.662009,16.000587,-0.251618,-0.225947,-0.748494,7.672000,22.781934

-0.027994,1.265902,11.935041,15.994705,0.038560,0.151097,-0.463380,7.680000,22.781934

-0.844696,-1.332695,9.051437,15.997646,-0.200191,-0.030364,-0.584620,7.676000,22.781934

-2.209857,-1.191388,3.413561,16.012352,-0.008604,-0.002918,-0.396764,7.672000,22.781934

-2.049391,4.393797,9.233459,16.009411,0.306621,-0.100976,-0.124439,7.668000,22.781934

2.316730,-4.338444,9.518467,16.012352,0.305555,-0.278441,-0.072213,7.676000,22.781934

4.158500,1.112620,8.356882,16.003529,0.659950,-0.113500,0.199313,7.680000,22.781934

-2.245783,1.891002,11.465617,16.006470,-0.411762,-0.075929,0.397827,7.676000,22.251665

-3.383417,-4.645006,10.512400,15.991764,-0.127447,-0.062872,0.425006,7.680000,22.251665

-3.730695,7.536063,7.149792,16.003529,0.374302,0.239296,0.370914,7.680000,22.251665

-0.873436,1.689820,10.325588,15.994705,0.353518,0.253952,0.276587,7.688000,22.251665

-1.486561,-1.696738,8.934082,16.015293,-0.410963,-0.092450,-0.029579,7.672000,22.251665

-1.829049,-1.232104,7.408454,15.985882,0.286636,0.026126,-0.139095,7.676000,22.251665

4.951251,1.012030,8.919712,16.015293,0.200835,-0.170790,-0.229958,7.668000,22.251665

3.006495,8.309654,10.627360,16.018234,0.512863,0.417293,-0.208375,7.676000,22.251665

2.654428,-0.678854,8.306586,16.006470,0.318079,0.061832,-0.367453,7.680000,22.251665

1.789825,3.476505,6.323510,16.000587,-0.003541,0.154827,-0.201180,7.660000,22.251665

-0.475863,3.830968,14.461787,15.991764,0.120364,0.135642,-0.329615,7.668000,22.251665

-2.233808,-2.949333,12.327825,16.009411,-0.299581,0.027458,-0.358393,7.664000,22.251665

-0.387247,7.576778,4.553591,16.000587,0.537644,0.266209,-0.274991,7.672000,22.251665

-0.516578,4.051310,6.819279,16.006470,-0.465854,-0.188909,-0.202246,7.660000,22.251665

0.328863,6.125396,7.607240,16.006470,0.287436,0.317370,-0.198516,7.672000,22.251665

-5.170101,9.009000,-3.632586,16.012352,0.295429,0.097272,-0.100458,7.680000,22.251665

0.498910,-5.104850,4.922423,16.012352,0.316214,0.138040,0.256868,7.680000,22.251665

-0.193251,-2.369738,5.240961,15.994705,0.080394,-0.742085,-0.234222,7.680000,21.932536

2.807709,0.444410,13.384028,16.000587,0.433191,-0.330401,0.214501,7.680000,21.932536

-1.345255,-4.082177,13.463063,16.009411,0.301292,-0.435920,-0.299239,7.684000,21.932536

0.939593,7.976747,-2.827860,16.000587,1.168893,-0.260055,-0.037839,7.696000,21.932536

2.139498,-5.140775,21.170237,15.994705,-1.064062,-0.651488,0.402357,7.680000,21.932536

-1.764384,12.797921,11.544653,16.000587,2.130290,0.672031,0.722378,7.704000,21.932536

-6.032309,8.118052,6.009762,15.997646,0.116633,0.216380,0.103919,7.708000,21.932536

3.018471,-6.117943,-0.253214,16.000587,0.089987,0.022929,0.662691,7.708000,21.932536

-0.830326,0.336634,9.592712,15.997646,0.027368,-0.458036,0.756752,7.704000,21.932536

-3.093619,-8.129760,6.740243,16.000587,0.553632,-0.361310,0.487359,7.712000,21.932536

-1.680558,20.042854,12.114668,16.006470,0.344992,0.013869,0.581420,7.712000,21.932536

0.163607,-8.879401,3.770419,16.012352,-0.719526,0.211318,0.350930,7.708000,21.932536

-3.735485,9.828096,12.665523,15.997646,1.275212,0.673630,0.298970,7.708000,21.932536

9.791585,2.537657,14.569563,15.997646,-0.829309,-0.854532,-0.170804,7.696000,21.932536

1.428177,1.732930,10.790222,15.991764,0.242670,0.775952,0.093793,7.696000,21.932536

-5.802386,0.245623,11.947017,16.009411,-0.032319,0.571042,-0.391435,7.704000,24.943532

1.456918,4.341107,10.062136,15.991764,-0.034185,0.648050,-0.536124,7.696000,24.943532

-1.486561,3.524405,7.573710,16.006470,0.026569,0.164420,-0.687474,7.700000,24.943532

6.079305,-1.208153,11.635664,16.012352,0.301025,0.050641,-0.519603,7.704000,24.943532

-0.940497,-2.954123,5.820556,15.991764,0.171791,0.226239,-0.598742,7.704000,24.943532

-3.227741,-1.100378,8.958032,15.991764,-0.390179,-0.113234,-0.492690,7.704000,24.943532

-0.722550,-0.343551,10.074111,16.003529,-0.435744,-0.196104,-0.311496,7.704000,24.943532

0.532440,0.058812,15.477275,15.994705,-0.080816,0.188935,-0.171337,7.704000,24.943532

-3.919901,5.706268,9.355605,15.997646,0.076664,0.300849,0.053824,7.708000,24.943532

-2.741552,3.648946,12.533796,15.988823,-0.176742,-0.100177,0.107650,7.700000,24.943532

-0.609984,-2.841557,10.888417,15.985882,-0.044577,-0.025568,-0.008795,7.696000,24.943532

-1.299750,4.475228,8.696975,15.965292,0.281840,0.139373,-0.103922,7.700000,24.943532

2.465221,-0.602214,11.441668,15.988823,-0.130111,-0.201966,0.135628,7.692000,24.943532

1.816171,-2.640375,9.765154,15.980000,0.141148,-0.039424,0.145221,7.700000,24.943532

-2.401459,-7.186122,13.896563,15.980000,-0.245223,-0.035427,-0.017321,7.700000,24.943532

-0.775241,5.390125,5.058939,15.985882,0.044422,0.094341,0.014654,7.692000,24.943532

-0.871041,1.469478,11.590158,15.997646,-0.927100,-0.071133,-0.083138,7.672000,23.965896

1.476078,-5.152750,11.992521,15.997646,0.109439,0.261679,-0.150020,7.680000,23.965896

-1.120123,7.363622,10.090877,15.980000,0.328471,0.365866,-0.165741,7.688000,23.965896

0.530045,-4.074992,8.038344,15.977058,-0.364598,-0.130554,0.090596,7.684000,23.965896

-0.521369,-5.200651,12.375725,15.991764,-0.110126,-0.054878,0.095126,7.684000,23.965896

-2.463729,-8.172871,13.748071,15.977058,-0.860485,-0.629638,-0.027980,7.684000,23.965896

-2.995424,-2.439194,14.258210,16.006470,-0.187933,-0.304554,-0.153484,7.676000,23.965896

0.953964,4.024964,8.962822,15.974117,-0.091741,-0.098045,-0.078874,7.676000,23.965896

-1.223109,1.356912,14.054633,15.991764,-0.161554,0.060766,0.024780,7.668000,23.965896

1.361117,-2.949333,9.815449,15.994705,0.210161,0.140439,0.097257,7.672000,23.965896

-2.193092,7.457027,8.847861,15.982941,0.025769,0.111128,0.177463,7.668000,23.965896

-0.044760,-3.629518,9.540022,16.000587,-0.129578,-0.024502,-0.050629,7.656000,23.965896

0.312098,5.327855,9.901670,15.985882,0.744152,0.215581,-0.151618,7.664000,23.965896

4.570443,-1.086008,6.352250,15.985882,-0.034451,-0.273111,-0.128436,7.660000,23.965896

2.127523,-0.585448,8.162886,16.003529,-0.074687,-0.141745,0.130565,7.652000,23.965896

-1.129703,3.943534,9.520862,16.000587,0.268517,0.336555,0.376244,7.652000,23.965896

-1.764384,3.258558,7.932963,15.997646,0.356449,0.150564,0.467107,7.656000,23.965896

1.617384,-0.250146,9.520862,16.006470,-0.056567,0.009073,0.591279,7.652000,23.965896

1.624569,1.488638,10.222602,16.000587,-0.123982,-0.030097,0.500415,7.640000,23.965896

0.530045,4.247701,10.464499,16.021175,0.315681,0.485774,0.332810,7.648000,20.604735

1.935922,-4.714462,10.550720,16.000587,-0.183404,-0.126557,0.170268,7.644000,20.604735

0.086966,1.361702,8.143725,15.997646,0.164330,0.135376,0.025046,7.644000,20.604735

2.285594,3.258558,4.342829,15.994705,0.413206,0.183872,-0.144158,7.640000,20.604735

0.003141,4.290812,13.247512,15.994705,-0.203122,0.133777,-0.148421,7.636000,20.604735

-0.528554,-2.161371,13.803157,16.000587,0.048152,0.507624,-0.318158,7.640000,20.604735

1.485658,2.987921,7.801237,16.006470,-0.369661,-0.138548,-0.556375,7.620000,20.604735

2.194584,0.669542,17.977676,15.985882,-0.042179,0.111661,-0.422344,7.624000,20.604735

-0.142955,6.678646,9.041858,16.015293,0.469962,0.754368,-0.549181,7.628000,20.604735

0.376764,-1.941030,6.251659,15.997646,-0.083480,0.082350,-0.584087,7.632000,20.604735

-1.340465,-5.234181,11.302756,16.003529,-0.599884,-0.163062,-0.647505,7.620000,20.604735

2.290385,0.762947,7.961703,16.029999,-0.345146,-0.313880,-0.536657,7.624000,20.604735

-3.390602,4.357872,8.220366,16.009411,-0.002209,0.146834,-0.537723,7.612000,20.604735

0.520465,-2.115866,9.896879,16.027058,-0.012335,-0.056744,-0.536124,7.616000,20.604735

0.443824,-6.592157,8.881392,16.012352,-0.106662,-0.164395,-0.535591,7.612000,20.604735

-2.377509,-5.626965,9.786709,16.006470,-0.287324,-0.474290,-0.414084,7.604000,20.604735

-1.235084,2.621483,8.747270,16.035881,-0.062430,-0.421264,-0.155349,7.612000,20.604735

-0.624354,-2.264357,9.973520,16.027058,0.236541,-0.258189,0.034372,7.620000,20.604735

0.328863,-2.427218,3.140529,16.021175,-0.054969,-0.489745,0.240081,7.616000,20.604735

-3.086434,0.964129,9.523256,16.027058,-0.131710,-0.213957,0.610198,7.604000,20.604735

-2.703231,-1.550641,12.344589,16.024117,-0.212981,-0.414869,0.664290,7.604000,20.604735

-1.175209,-2.446379,10.004656,16.029999,0.476358,-0.263252,0.342403,7.608000,20.604735

1.873651,-0.089679,8.067084,16.009411,0.707647,-0.122560,0.151349,7.608000,17.417674

3.317848,-3.519347,4.606281,16.032940,-0.046175,-0.627773,0.145754,7.608000,17.417674

-2.382299,1.505404,6.654023,16.041763,-0.399771,-0.442848,0.304565,7.580000,17.417674

0.575550,-2.094311,9.750783,16.024117,-0.108794,-0.191307,0.207306,7.600000,17.417674

0.386344,-1.835649,8.620334,16.032940,-0.120518,-0.244067,0.360789,7.616000,17.417674

-4.154613,-0.168715,14.464182,16.018234,-0.268672,-0.080992,0.649634,7.592000,17.417674

-3.096014,-2.374528,10.577065,16.024117,-0.250019,-0.250195,0.710654,7.588000,17.417674

-4.259994,1.620364,12.560142,16.000587,0.269583,0.006941,0.719980,7.588000,17.417674

0.688116,-2.151791,8.692184,16.009411,-0.108794,-0.330401,0.834826,7.588000,17.417674

0.307308,2.851404,9.240644,16.021175,0.079328,-0.175053,1.029610,7.580000,17.417674

0.398319,3.150782,8.562854,16.003529,0.045754,0.108463,1.200412,7.576000,17.417674

1.646124,-3.536113,10.936318,16.006470,0.091053,-0.012244,1.218532,7.588000,17.417674

2.302360,3.984249,5.949887,16.009411,0.236808,0.091676,1.371215,7.592000,17.417674

-1.100963,12.074625,13.115786,16.009411,0.395353,0.576904,1.358158,7.592000,17.417674

2.740648,-6.608922,8.843071,16.024117,0.308220,0.077553,0.912366,7.584000,17.417674

0.616266,2.389166,7.509045,16.012352,-0.121318,-0.042888,0.321619,7.592000,17.417674

2.630477,6.609190,6.009762,16.012352,0.400416,0.360004,-0.070081,7.596000,17.417674

-0.806376,-0.918356,11.319521,16.032940,-0.168482,0.308576,-0.220632,7.596000,17.417674

4.721329,-4.474960,7.813212,16.018234,-0.112525,-0.147607,-0.523867,7.596000,17.417674

-2.044601,-3.952846,7.865902,16.032940,0.009782,0.208386,-0.457251,7.592000,17.417674

-4.499496,4.872801,11.901511,16.018234,-0.548191,0.021063,-0.543318,7.572000,17.417674

2.218534,-5.804196,7.609635,16.021175,0.382829,0.272870,-0.430871,7.572000,17.417674

-0.418383,-1.435680,10.593830,16.009411,-0.289722,-0.151071,-0.255805,7.576000,17.417674

-1.807494,2.774764,2.637575,16.024117,0.011913,-0.078327,-0.174534,7.576000,17.417674

0.908458,-2.108681,18.770428,16.035881,-0.137039,0.028258,-0.213171,7.576000,17.417674

2.070043,3.598651,8.074269,16.009411,-0.083480,-0.214756,-0.143358,7.576000,15.747385

0.448614,2.271810,8.881392,16.018234,0.336998,0.416760,-0.164142,7.572000,15.747385

-1.091383,1.833521,8.258686,16.018234,-0.073621,-0.198502,-0.223030,7.564000,15.747385

1.483263,-3.792380,14.521663,16.018234,0.035895,-0.244600,-0.125772,7.572000,15.747385

-1.247059,-0.468093,10.392649,16.015293,-0.057633,-0.159332,0.045297,7.560000,15.747385

-0.921337,3.682476,9.657377,16.006470,0.305289,-0.031696,0.463377,7.580000,15.747385

0.839003,-4.850978,5.638535,16.015293,-0.297183,-0.454839,0.707457,7.580000,15.747385

-6.619088,8.896434,7.844347,16.003529,0.024704,0.280864,0.963527,7.576000,15.747385

1.291661,0.573741,10.634545,16.003529,-0.138371,0.048242,0.820170,7.596000,15.747385

0.939593,2.528077,9.935200,16.015293,0.584008,0.119388,0.863870,7.608000,15.747385

1.636544,0.568951,6.392965,16.018234,-0.061897,0.277400,0.774605,7.584000,15.747385

-0.233966,-0.235776,16.555033,16.021175,0.235209,-0.210759,0.087132,7.592000,15.747385

1.825751,4.923097,5.770260,16.024117,0.423065,-0.031430,0.056222,7.608000,15.747385

5.356009,-0.681249,8.332932,16.009411,0.086523,0.063164,0.256069,7.588000,15.747385

0.824632,1.629945,15.082097,16.021175,-0.403502,-0.200101,0.192651,7.592000,15.747385

-2.262548,4.674015,9.628637,16.021175,0.253328,0.198527,0.289110,7.600000,15.747385

-0.217201,5.428446,7.858717,16.015293,0.432125,0.043713,0.324284,7.620000,15.747385

-0.861461,-5.243761,10.057346,16.027058,-0.353407,-0.472159,0.150284,7.612000,15.747385

-2.293683,-5.037789,14.943186,16.035881,-0.208718,-0.421797,0.357591,7.616000,15.747385

3.428019,-3.457077,9.508886,16.012352,0.146210,-0.303488,0.850813,7.612000,15.747385

-5.079091,13.504452,11.003379,16.012352,0.205099,0.468187,1.214002,7.624000,15.747385

-1.819469,-1.004577,12.229629,16.021175,-0.316901,0.112726,0.884921,7.624000,15.747385

1.507213,3.373519,5.274491,16.021175,1.134786,0.079152,0.981380,7.640000,17.068479

2.781363,5.349410,6.749824,16.015293,0.126226,-0.103375,0.749824,7.640000,17.068479

0.956359,2.207144,8.744875,16.003529,0.411074,0.069293,0.981646,7.640000,17.068479

0.525255,-5.420993,11.645244,16.009411,-0.294518,-0.205963,0.889717,7.640000,17.068479

-3.328331,3.057376,10.177097,16.003529,-0.009937,-0.004251,0.964060,7.640000,17.068479

-1.632658,5.526641,8.308981,16.018234,0.271448,0.445805,0.846017,7.636000,17.068479

1.775455,0.442015,12.294294,16.009411,0.383362,0.228105,0.721846,7.640000,17.068479

1.231786,-4.453405,13.597185,16.021175,-0.207918,-0.042355,0.539585,7.640000,17.068479

4.613554,2.695728,5.403822,16.009411,0.065472,0.445538,0.762348,7.640000,17.068479

-1.761989,2.005963,16.452047,16.018234,-0.036583,0.412497,0.920094,7.636000,17.068479

-0.408803,2.676568,8.165280,16.021175,0.216024,0.408500,0.914231,7.624000,17.068479

0.791102,5.093143,5.739125,16.009411,0.211494,0.456197,0.700529,7.628000,17.068479

-2.801427,1.869447,16.428097,16.018234,-0.174610,0.537201,0.376244,7.628000,17.068479

2.266434,-1.188993,6.076823,16.009411,0.303690,0.186803,0.208372,7.640000,17.068479

-0.487838,-0.506413,5.825346,16.000587,-0.004341,0.229970,-0.383174,7.636000,17.068479

1.696420,1.574859,7.870693,15.991764,0.223485,0.341351,-0.383974,7.652000,17.068479

0.752782,-1.275214,10.069321,16.012352,0.208296,0.127915,-0.458050,7.648000,17.068479

1.919157,6.807977,5.772655,16.006470,0.296762,0.336022,-0.219833,7.660000,17.068479

4.306991,-0.041779,2.924977,16.000587,0.177120,0.275801,0.021582,7.648000,17.068479

-3.275641,3.402259,12.018867,16.000587,-0.009670,0.441275,0.155613,7.644000,20.799983

1.375487,-0.460907,6.706713,15.988823,0.424664,0.116457,0.322152,7.652000,20.799983

-0.267496,0.880304,10.718371,15.994705,0.314881,-0.030630,0.246743,7.652000,20.799983

4.467457,-0.951886,9.652588,16.021175,0.029233,0.041314,0.584351,7.644000,20.799983

-4.226464,-0.118420,17.292700,16.006470,0.135019,0.401572,0.392764,7.652000,20.799983

3.061581,4.238121,7.006091,16.018234,0.228014,0.183073,0.408219,7.660000,20.799983

-3.107990,1.500613,10.529164,16.027058,-0.099201,0.393045,-0.122574,7.660000,20.799983

0.656981,-1.169833,5.056545,16.015293,0.050817,0.317370,-0.071147,7.660000,20.799983

1.236576,-4.161212,9.966335,16.006470,-0.727520,0.040249,-0.295242,7.652000,20.799983

1.373092,-4.472565,9.415481,16.006470,0.315947,0.511088,-0.577425,7.664000,20.799983

-2.636171,6.240357,14.495317,15.994705,-0.224972,0.469786,-0.915566,7.664000,20.799983

-1.048273,-1.272819,5.743915,16.000587,-0.184736,0.403171,-1.108485,7.664000,20.799983

2.508331,2.650223,11.123130,16.015293,-0.135440,0.311507,-1.130602,7.660000,20.799983

0.403109,1.965247,5.832531,15.985882,0.321543,0.160956,-0.960332,7.660000,20.799983

2.120338,7.615099,8.177256,15.997646,0.374036,0.189201,-0.764749,7.656000,20.799983

-5.931717,7.488163,14.639018,16.009411,-0.250019,0.420224,-0.611799,7.644000,20.799983

1.006654,-0.348342,8.124565,15.994705,0.261589,0.254484,-0.313894,7.652000,20.799983

-3.139125,-3.653469,7.305468,15.991764,-0.383783,-0.141212,-0.167873,7.652000,21.928344

0.767152,-0.444142,8.912526,16.012352,-0.123716,-0.119895,-0.308298,7.652000,21.928344

1.591039,-2.070361,13.338523,16.000587,-0.003808,-0.100976,-0.144690,7.652000,21.928344

-1.512907,4.697965,8.246711,16.009411,-0.151428,0.036785,0.037303,7.652000,21.928344

-2.427804,-0.997392,11.211745,15.988823,-0.018730,0.093808,-0.146023,7.652000,21.928344

-1.999095,-5.147961,8.613149,15.997646,0.153139,-0.058875,-0.519870,7.660000,21.928344

4.316571,-1.555431,8.459867,15.994705,0.210961,-0.114300,-0.595278,7.652000,21.928344

-0.183671,4.561449,-1.520179,15.985882,0.768667,0.104200,-0.369318,7.660000,21.928344

0.405504,-4.920434,11.458432,15.994705,-0.254816,-0.557960,-0.219833,7.648000,21.928344

1.198256,3.054981,18.329742,16.000587,0.238406,0.025593,-0.549980,7.644000,21.928344

-1.776359,4.774605,3.506967,15.994705,0.754544,0.014935,-0.657364,7.652000,21.928344

1.591039,7.121725,7.195297,15.974117,0.645028,0.302714,-0.654966,7.660000,21.928344

4.069884,2.676568,9.894485,16.000587,0.188844,-0.115898,-0.827101,7.656000,21.928344

-1.570387,-0.372292,5.794210,16.003529,-0.113857,0.039183,-0.494822,7.648000,21.928344

0.680931,1.388048,16.339481,16.009411,-0.713664,-0.576878,-0.193720,7.644000,21.928344

4.036354,5.450001,21.838448,15.994705,0.079062,0.041314,-0.149753,7.644000,21.928344

-2.303263,6.915753,13.173266,16.000587,1.244835,0.646184,-0.456984,7.656000,21.928344

2.295175,1.138966,1.552631,15.980000,0.207497,-0.578477,-0.601674,7.640000,21.928344

4.972806,1.253927,7.420429,16.006470,-0.272669,-0.261120,-0.373315,7.636000,21.104607

-0.559689,-1.761403,25.143574,16.006470,-0.521545,-0.034361,-0.683211,7.632000,21.104607

-1.254244,1.831126,8.433522,16.003529,0.174722,0.137241,-0.500151,7.644000,21.104607

-2.288893,4.357872,11.944621,15.977058,-0.365397,-0.037558,0.043965,7.636000,21.104607

-2.923573,1.697005,8.500583,15.991764,0.129157,0.132711,-0.086602,7.648000,21.104607

-1.718878,-2.511044,8.373647,15.988823,-0.016598,-0.191307,-0.194785,7.640000,21.104607

2.046093,-8.996757,5.346342,15.994705,0.098780,-0.212891,-0.171870,7.656000,21.104607

-7.859708,19.250103,14.404306,15.997646,-0.062163,0.356806,0.324284,7.664000,21.104607

-0.154930,-0.482463,10.102851,16.000587,-0.929499,0.008273,0.296038,7.648000,21.104607

4.318966,-4.659377,1.717887,15.980000,1.145978,-0.011978,0.047429,7.660000,21.104607

0.558785,6.309813,13.501384,15.985882,-0.243358,-1.129522,0.055956,7.648000,21.104607

-5.028795,-6.513122,8.950847,15.982941,-0.192996,0.023461,-0.057291,7.644000,21.104607

-4.319870,0.408485,14.169595,15.977058,-0.151162,-0.204364,-0.871867,7.644000,21.104607

3.195702,1.239557,8.474237,15.988823,-0.348077,-0.173454,-0.680547,7.644000,21.104607

1.145565,-2.836767,8.263476,16.000587,-0.009937,-0.003718,-0.710390,7.640000,21.104607

-0.382457,1.325777,10.083691,15.982941,0.223218,-0.081791,-0.646439,7.648000,21.104607

-1.544042,1.162916,8.910131,15.994705,0.030566,-0.156934,-0.351199,7.652000,21.104607

-1.666188,1.165311,9.956755,15.994705,0.170192,-0.227013,-0.299239,7.648000,21.104607

-2.461334,1.148546,9.168794,15.988823,0.148875,-0.211825,-0.183594,7.660000,21.104607

-1.912875,1.615574,7.032436,15.985882,0.071068,-0.314413,0.039968,7.656000,20.787466

-2.121242,0.032467,11.300361,15.982941,0.141414,-0.339460,0.011190,7.660000,20.787466

-1.079408,-0.204640,9.087363,15.988823,0.177387,-0.367972,0.201178,7.664000,20.787466

-0.415988,0.820428,9.245434,15.980000,0.086256,-0.300290,0.376777,7.664000,20.787466

-0.387247,0.554581,9.396320,15.962351,0.212560,-0.297892,0.297637,7.660000,20.787466

0.862953,0.918624,9.956755,15.977058,0.197638,-0.259255,0.122038,7.660000,20.787466

0.788707,2.022728,8.936477,15.994705,0.192841,-0.213157,0.065815,7.652000,20.787466

0.633031,1.562884,9.573552,15.982941,0.096116,-0.202499,0.141757,7.660000,20.787466

-0.380062,1.967642,10.565090,15.985882,0.164596,-0.218486,0.332011,7.660000,20.787466

-1.191974,-0.853691,9.573552,15.982941,-0.025391,-0.256857,0.508676,7.652000,20.787466

-1.261430,0.434830,9.132869,15.988823,0.074266,-0.240070,0.657095,7.656000,20.787466

-0.971632,0.137847,8.991562,15.968235,0.083592,-0.211026,0.641640,7.660000,20.787466

0.106127,0.226463,8.124565,15.971176,0.021772,-0.257124,0.496685,7.656000,20.787466

1.102455,-0.149555,10.363909,15.977058,0.026036,-0.202499,0.371447,7.652000,20.787466

-0.803981,0.051627,9.271779,15.974117,-0.001676,-0.044753,0.237417,7.660000,20.787466

0.451009,-0.781840,9.987890,15.971176,0.087322,-0.150539,0.282715,7.660000,20.787466

-0.214806,-0.621374,10.031001,15.982941,0.010581,-0.166260,0.293907,7.664000,20.787466

-0.219596,1.105435,9.954360,15.982941,0.080128,-0.057543,0.392764,7.660000,21.660242

-0.550109,0.724627,10.299243,15.982941,0.045754,-0.083124,0.560902,7.664000,21.660242

-0.456703,-0.149555,10.668076,15.974117,0.091319,-0.068202,0.649634,7.660000,21.660242

-0.150140,-0.025014,10.426179,15.968235,0.072400,-0.091384,0.781800,7.656000,21.660242

-0.830326,1.462293,10.069321,15.974117,0.109439,0.031189,1.037604,7.660000,21.660242

-0.406408,0.082762,9.587922,15.965292,0.134753,0.123918,1.240914,7.660000,21.660242

0.029486,-2.623610,10.687236,15.974117,0.109172,0.050374,1.221463,7.656000,21.660242

-0.502208,1.591624,10.284873,15.980000,0.304489,0.371461,0.978715,7.668000,21.660242

1.282081,-0.403427,12.121853,15.985882,0.112370,0.292056,0.621656,7.668000,21.660242

3.566930,-1.109958,12.277529,15.968235,0.127558,0.341351,0.491089,7.664000,21.660242

-1.251849,2.161639,11.288386,15.965292,0.221619,0.769290,0.008525,7.664000,21.660242

0.870138,-0.041779,4.294929,15.971176,-0.284926,0.318435,-0.316292,7.660000,21.660242

-0.705785,2.904095,8.308981,15.962351,0.079328,0.532138,-0.464445,7.660000,21.660242

0.680931,2.595137,7.796447,15.988823,0.196838,0.398108,-0.591282,7.652000,21.660242

2.086808,0.099527,13.293017,15.977058,0.348455,0.549458,-0.664026,7.660000,21.660242

4.893771,-3.030763,0.680844,15.968235,0.017776,0.263811,-0.701064,7.652000,21.660242

0.774337,-3.586408,6.230104,15.980000,-0.411229,0.198527,-0.572096,7.644000,21.660242

1.016234,-0.745915,4.611071,15.985882,0.050284,0.178276,-0.543585,7.648000,21.660242

-1.836234,-0.820160,13.875007,15.956469,0.257592,0.377057,-0.639245,7.648000,21.660242

-0.703390,-9.243443,8.368856,15.971176,-0.500228,-0.034894,-1.081306,7.652000,21.309916

2.158659,2.322105,14.212705,15.959410,-0.179673,0.203057,-1.073312,7.644000,21.309916

2.668797,-0.240566,8.098220,15.962351,0.234410,0.113792,-0.646173,7.652000,21.309916

-2.193092,-3.320561,7.784472,15.977058,-0.642785,0.057569,-0.198782,7.640000,21.309916

-3.584598,1.064720,9.937595,15.977058,0.294630,0.174279,-0.538788,7.652000,21.309916

1.713185,-2.635585,8.064690,15.971176,-0.707802,-0.587004,-0.512409,7.640000,21.309916

1.662889,-3.325351,20.286474,15.974117,0.397218,0.623002,-0.369318,7.656000,21.309916

-5.380863,1.673055,0.163520,15.980000,0.457972,0.163354,-0.475370,7.668000,21.309916

-0.257916,8.577896,-0.602886,15.974117,-0.108794,-0.046352,-0.284850,7.636000,21.309916

6.294857,-4.106127,31.246084,15.965292,0.022838,-0.183846,-0.366121,7.652000,21.309916

-0.928522,-13.501788,15.541941,15.956469,-0.303845,0.568644,-0.713588,7.656000,21.309916

2.647242,13.523612,-2.698529,15.965292,1.095350,0.525210,-0.423144,7.656000,21.309916

-0.614774,9.167071,-3.045806,15.962351,-0.512485,-0.643761,-0.293377,7.636000,21.309916

2.618502,-9.779928,19.393131,15.959410,0.030299,0.033587,-0.596877,7.648000,21.309916

-7.107672,4.939862,16.006575,15.965292,0.173390,0.117523,-0.656565,7.660000,21.309916

2.362235,-8.766835,-8.573511,15.965292,-0.365930,-0.205163,-0.813511,7.660000,21.309916

-3.376232,1.843101,20.813379,15.953527,-0.613741,-0.287767,-0.679214,7.648000,21.309916

-1.424291,-1.296769,15.477275,15.956469,0.092918,0.350411,-0.524133,7.660000,21.309916

-0.672255,-3.785195,10.054951,15.959410,0.563491,0.016800,-0.309897,7.668000,20.800948

-4.760553,22.023535,3.059098,15.968235,1.029267,0.278999,-0.024782,7.668000,20.800948

4.421952,-7.363354,22.451572,15.971176,-1.724090,-0.679999,-0.046899,7.648000,20.800948

4.819525,-4.024696,10.069321,15.962351,0.764670,0.686154,-0.332280,7.660000,20.800948

-2.964288,2.765184,5.197851,15.947645,0.145678,-0.391154,-0.775141,7.660000,20.800948

-3.658844,5.153018,6.488766,15.947645,0.866725,0.207054,-0.831098,7.676000,20.800948

-1.172814,6.237962,14.967136,15.944704,-0.537799,-0.515859,-0.650969,7.664000,20.800948

2.321520,-8.333337,3.708149,15.941763,-0.387780,-0.165727,-0.642176,7.664000,20.800948

-3.151100,10.709464,22.458757,15.953527,0.486750,0.251820,-0.192654,7.664000,20.800948

3.734581,3.608231,9.892090,15.944704,0.482220,0.164154,-0.575027,7.676000,20.800948

-3.206185,-0.298046,1.368215,15.956469,-0.471183,-0.387690,-0.466311,7.660000,20.800948

0.659376,-6.620897,16.349062,15.950586,-0.593489,-0.630970,-0.796724,7.660000,20.800948

-4.762948,2.159244,4.855363,15.947645,0.124893,-0.103108,-0.723980,7.672000,20.800948

-1.196764,-0.908776,13.381633,15.950586,-0.417358,-0.325338,-0.403426,7.672000,20.800948

-1.682953,-6.893929,11.171030,15.947645,-0.661970,-0.398349,-0.267530,7.668000,20.800948

-2.528395,2.815479,15.283278,15.962351,0.178985,-0.154003,0.147352,7.680000,20.800948

-5.225187,1.570069,9.080178,15.956469,0.076930,-0.331200,0.455117,7.684000,20.800948

-5.426368,-1.926659,10.397439,15.950586,0.861662,0.022929,0.782066,7.688000,22.385034

-4.540211,5.742193,1.581371,15.962351,-0.123982,-0.825754,0.618725,7.684000,22.385034

0.091757,-3.217575,2.268742,15.944704,0.271448,-0.292297,0.585150,7.688000,22.385034

-0.650700,-5.090480,18.377644,15.944704,-0.839967,-0.672272,0.484960,7.680000,22.385034

-4.475546,4.362662,12.181728,15.959410,0.649025,0.396242,0.126835,7.704000,22.385034

3.542980,13.274529,-5.158214,15.956469,-0.240160,-0.483883,0.221429,7.692000,22.385034

4.718935,-19.918047,22.228836,15.962351,-0.793070,-0.020505,0.334409,7.688000,22.385034

-12.170744,5.660763,15.901194,15.947645,0.241604,0.150031,0.033573,7.708000,22.385034

-0.969237,-3.452287,-0.650787,15.959410,-0.710200,-0.143078,0.020783,7.692000,22.385034

-10.101447,-6.156264,14.718054,15.929998,-0.215646,0.431682,0.211303,7.692000,22.385034

-2.506840,2.470596,6.855204,15.953527,-0.396840,-0.244866,-0.184926,7.692000,22.385034

4.477037,-10.982228,9.803473,15.944704,0.192841,0.183339,0.188921,7.700000,22.385034

-7.244188,11.578856,11.192585,15.950586,0.358048,0.620870,0.424740,7.708000,22.385034

0.728832,-8.762045,3.461462,15.962351,-1.007572,-0.274444,0.630715,7.700000,22.385034

-2.842142,-0.530363,4.170388,15.944704,1.218722,0.437544,0.865202,7.704000,22.385034

-3.258876,1.206026,16.353851,15.938822,-0.469318,-0.747947,0.235285,7.696000,25.060756

-4.444410,-14.699298,2.862707,15.921175,-0.034451,-0.053813,-0.080473,7.708000,25.060756

-2.537975,5.543406,14.519267,15.929998,-0.182071,-0.236606,-0.232890,7.704000,25.060756

4.613554,0.559371,10.648915,15.927057,0.097181,0.252353,-0.075677,7.704000,25.060756

-1.086593,8.316839,2.606440,15.950586,0.095050,0.410631,-0.029312,7.700000,25.060756

2.903510,1.522169,19.290146,15.929998,-0.015532,0.170549,0.111380,7.700000,25.060756

-0.444728,-4.601896,1.957389,15.927057,0.186446,0.190533,-0.176399,7.704000,25.060756

-0.099845,0.636012,7.801237,15.935881,-0.069624,-0.133485,-0.213704,7.700000,25.060756

3.516634,-3.164885,13.968412,15.941763,-0.128246,0.038650,-0.185459,7.696000,25.060756

1.416202,2.997501,16.710711,15.924116,0.651423,0.211584,-0.095128,7.708000,25.060756

-2.075736,3.474110,0.642524,15.924116,-0.033385,-0.188909,-0.156415,7.712000,25.060756

1.933527,-1.076427,4.462580,15.927057,-0.373125,-0.132686,-0.036507,7.700000,25.060756

-3.589388,-0.441747,0.520378,15.935881,0.096915,-0.097512,-0.235021,7.704000,25.060756

2.230509,-6.474801,28.190039,15.927057,-0.276932,-0.605390,-0.124706,7.700000,25.060756

3.631596,-2.039225,16.602934,15.941763,0.270915,0.176411,0.039702,7.720000,25.060756

-5.931717,9.555064,1.581371,15.921175,0.506734,0.479112,-0.031177,7.708000,25.060756

-1.800309,-4.592316,7.580895,15.921175,-0.412295,-0.282970,-0.154816,7.708000,25.231842

-1.805099,0.973709,19.769150,15.929998,0.212027,-0.066070,0.069545,7.704000,25.231842

-5.517379,0.813243,1.574186,15.924116,0.136884,0.258748,0.412749,7.708000,25.231842

-2.260153,-0.036989,8.967612,15.927057,-0.328892,-0.299225,0.224627,7.700000,25.231842

0.213903,-2.911012,14.354011,15.938822,0.201102,0.170016,0.224094,7.708000,25.231842

1.162330,8.122843,4.122487,15.950586,1.626143,0.590760,0.131365,7.716000,25.231842

2.692748,1.704190,8.517348,15.921175,-0.823713,-1.211326,0.000265,7.688000,25.231842

2.848424,-8.218376,-3.685277,15.918234,0.571485,-0.009047,0.019450,7.704000,25.231842

-3.112780,8.199483,17.026854,15.927057,-0.124782,0.015734,-0.168406,7.704000,25.231842

1.777850,-2.348183,6.455236,15.924116,0.264520,0.224374,-0.103122,7.708000,25.231842

-4.947364,0.178563,11.221325,15.932940,-0.417091,-0.214223,-0.419946,7.696000,25.231842

5.801483,0.885094,14.176780,15.929998,0.350054,0.156426,-0.530528,7.696000,25.231842

-1.860184,7.203155,7.070756,15.915293,0.093451,0.609146,-0.407422,7.704000,25.231842

-0.986002,-2.420033,11.475198,15.912352,-0.147165,-0.063938,-0.223297,7.700000,25.231842

-0.420778,3.337594,11.321917,15.932940,-0.140237,0.127648,-0.252341,7.704000,25.231842

-0.760870,-3.660654,0.290456,15.927057,0.023904,0.091409,-0.385839,7.704000,24.599521

-3.119965,-3.126564,14.770744,15.927057,-0.503691,-0.344257,-0.443395,7.700000,24.599521

-0.947682,7.983932,17.757334,15.941763,0.290367,0.200393,-0.555309,7.712000,24.599521

2.865189,-2.372133,8.409573,15.927057,-0.019529,-0.416202,-0.490559,7.712000,24.599521

-0.641119,4.868011,6.206154,15.929998,0.414538,0.256350,-0.150553,7.712000,24.599521

-0.487838,-0.630954,8.055109,15.929998,-0.662237,-0.303754,0.069545,7.712000,24.599521

-5.098251,-4.810263,14.526452,15.927057,0.226682,-0.070866,-0.159346,7.708000,24.599521

-1.244664,1.076695,4.785908,15.918234,0.065739,-0.394618,-0.151618,7.712000,24.599521

3.178937,4.216566,1.121528,15.935881,0.433990,-0.154003,0.205175,7.704000,24.599521

-3.278036,-4.003141,10.323193,15.921175,0.473160,-0.221684,0.255003,7.712000,24.599521

-1.287775,5.677528,9.997471,15.935881,0.171258,-0.276042,0.125236,7.716000,24.599521

1.715580,-3.320561,11.621294,15.929998,-0.421888,-0.515592,0.243012,7.704000,24.599521

-1.136889,4.036940,10.924343,15.929998,0.443583,0.261945,0.299502,7.704000,24.599521

-3.076854,4.053705,6.912685,15.932940,-0.385915,-0.239537,0.519867,7.696000,24.599521

0.096547,2.013148,17.438797,15.935881,0.312750,0.222775,0.896379,7.700000,24.599521

-2.372719,-1.086008,11.115945,15.921175,-0.007805,-0.088986,0.288578,7.700000,24.599521

-0.027994,2.913675,11.060859,15.927057,-0.436276,-0.208627,0.144155,7.700000,24.599521

-0.348927,-4.649796,10.301638,15.918234,-0.443738,-0.099111,0.510807,7.688000,24.383752

0.496515,-2.489489,15.860478,15.903528,-0.071489,-0.121228,0.497751,7.684000,24.383752

-3.737880,-2.391293,9.997471,15.912352,0.308486,0.230769,0.273656,7.704000,24.383752

-3.019374,5.145833,5.487648,15.918234,0.035895,0.050374,-0.110583,7.700000,24.383752

0.388739,-3.540903,11.470407,15.929998,-0.619336,-0.115099,-0.112981,7.688000,24.383752

0.846188,-7.301083,4.627836,15.918234,-0.133575,-0.019173,-0.402893,7.688000,24.383752

2.941830,8.788658,12.057187,15.906469,0.101978,0.025327,0.116443,7.692000,24.383752

-0.121400,3.512430,10.806987,15.915293,0.229880,0.608347,0.715717,7.688000,24.383752

-3.213370,-1.258449,8.282637,15.921175,-0.155159,-0.035427,0.387435,7.688000,24.383752

0.055831,-5.126405,12.605647,15.929998,-0.062163,-0.119362,0.183325,7.688000,24.383752

-0.964447,8.113263,7.726991,15.915293,-0.309174,-0.257390,-0.436467,7.688000,24.383752

0.989889,1.807176,11.580578,15.915293,-0.373125,0.194797,-0.197716,7.664000,24.383752

3.408859,-1.045292,17.683088,15.903528,0.053215,0.244359,-0.057024,7.676000,24.383752

-1.033903,-0.266911,6.776169,15.906469,0.010315,0.120454,-0.122574,7.676000,24.383752

-0.049550,-5.964662,8.184441,15.900587,-0.127713,-0.367972,-0.287781,7.656000,24.383752

4.280646,-0.621374,9.094548,15.924116,0.414805,-0.125225,-0.183328,7.668000,24.383752

0.604291,6.673856,5.549919,15.912352,0.035096,-0.017307,0.137493,7.664000,24.383752

2.738253,-7.451969,7.396479,15.909410,0.179518,-0.132153,0.480963,7.668000,21.625833

-1.565597,2.310130,8.119775,15.915293,0.076131,-0.147075,0.529726,7.676000,21.625833

-1.086593,-1.991325,7.571315,15.918234,-0.150096,-0.132952,0.605668,7.664000,21.625833

-2.722391,1.100645,10.174702,15.927057,0.104109,0.174546,0.559570,7.676000,21.625833

-1.467401,2.671778,7.880273,15.915293,0.097448,-0.102042,0.149484,7.672000,21.625833

4.077069,-0.616584,9.159214,15.915293,-0.406433,-0.002385,0.120973,7.668000,21.625833

-2.487679,-5.854491,16.703526,15.891764,-0.522877,0.201991,0.016786,7.664000,21.625833

-5.605995,8.235409,9.657377,15.903528,0.164863,0.584898,-0.145756,7.668000,21.625833

1.444943,-1.380595,11.118340,15.906469,-0.790938,0.033854,-0.248078,7.660000,21.625833

3.650755,0.298314,16.842436,15.924116,0.312217,0.239030,-0.373315,7.668000,21.625833

0.314493,3.651341,3.286625,15.894705,0.426795,0.452466,-0.356262,7.660000,21.625833

-1.702113,0.171378,4.335644,15.885881,0.033230,0.218778,-0.329882,7.656000,21.625833

-0.540529,-6.592157,13.966018,15.906469,-0.418423,-0.311482,-0.532393,7.652000,21.625833

-0.267496,-4.556391,7.635981,15.900587,-0.269205,-0.416468,-0.584354,7.648000,21.625833

1.332377,-0.132790,11.851215,15.885881,-0.280129,-0.036226,-0.318424,7.636000,21.625833

-3.155890,8.544366,1.624482,15.877058,0.107040,0.490304,0.192651,7.640000,21.625833

2.766993,-2.091916,9.381950,15.906469,-0.265741,0.022662,0.355193,7.636000,21.625833

-2.195487,-0.709989,15.884428,15.903528,0.305555,-0.001586,0.225959,7.648000,21.625833

1.279686,-6.252065,7.077941,15.906469,0.016976,-0.303754,-0.073545,7.652000,21.625833

-0.485443,5.830809,7.377318,15.888823,0.326339,-0.087120,-0.535058,7.644000,21.625833

1.816171,2.477782,16.020945,15.885881,-0.849560,-0.046618,-0.699199,7.624000,19.652377

3.147801,-5.059345,14.682129,15.897646,0.249598,0.282197,-0.420746,7.628000,19.652377

1.605409,-0.630954,11.058464,15.885881,0.191509,0.143636,0.191052,7.632000,19.652377

-5.768856,-0.580658,8.603569,15.897646,0.109972,0.138840,0.147086,7.632000,19.652377

-2.358348,-1.239289,12.093113,15.879999,0.073466,-0.110036,-0.107386,7.620000,19.652377

0.412689,0.583321,7.652746,15.888823,0.383096,-0.135350,-0.177998,7.616000,19.652377

1.528768,1.742511,8.170071,15.903528,-0.115722,-0.103641,-0.194519,7.596000,19.652377

4.175265,-3.857045,8.368856,15.871176,0.167794,-0.053813,-0.096461,7.608000,19.652377

0.194742,-0.310021,5.245751,15.865294,0.874985,0.231036,-0.006396,7.620000,19.652377

-5.984408,5.030872,12.610436,15.879999,-0.229768,-0.057543,-0.232623,7.612000,19.652377

-1.488956,-4.980309,9.216694,15.897646,-0.171146,-0.272312,-0.502017,7.600000,19.652377

-0.346532,-0.853691,11.393766,15.879999,0.170192,-0.174520,-0.553710,7.604000,19.652377

-5.227582,2.156849,11.673985,15.871176,-0.313437,-0.198235,-0.724513,7.596000,19.652377

-1.927245,-0.453722,11.870376,15.877058,0.089987,-0.255791,-0.551046,7.592000,19.652377

-0.801586,-1.093193,7.609635,15.891764,-0.221241,-0.197436,-0.285649,7.592000,19.652377

-0.569269,-5.514399,13.829502,15.891764,-0.375790,-0.157467,0.048228,7.572000,19.652377

-4.130663,-5.167120,7.794052,15.888823,-0.554319,-0.375966,0.295772,7.560000,19.652377

-2.906808,0.628826,18.102217,15.894705,0.252263,-0.171056,0.903573,7.564000,19.652377

2.869979,3.050191,3.380031,15.897646,0.113969,-0.331999,1.021882,7.564000,19.652377

-0.145350,3.220237,7.317443,15.882940,0.262921,0.120987,1.441561,7.564000,19.652377

1.979032,-0.903986,8.704160,15.885881,0.099580,-0.291764,1.149518,7.576000,19.652377

-2.811007,3.074141,9.504096,15.882940,-0.337152,0.069293,0.921692,7.564000,19.652377

-1.886530,8.654537,7.257567,15.879999,0.231745,0.333357,0.696265,7.568000,19.652377

0.405504,9.667630,7.183322,15.882940,0.280241,0.486840,0.621389,7.580000,19.652377

2.640057,-0.607004,15.328784,15.891764,0.092918,-0.019705,0.410351,7.580000,15.657218

1.382672,1.407208,6.232499,15.903528,-0.128512,0.340019,0.736501,7.584000,15.657218

-7.716007,2.384376,12.476315,15.897646,-0.248154,0.342151,0.496951,7.576000,15.657218

-0.483048,-1.232104,10.057346,15.888823,-0.254816,-0.093516,0.072476,7.564000,15.657218

1.394647,1.682635,12.718212,15.879999,0.292232,0.170549,0.070345,7.596000,15.657218

2.228114,-3.037949,6.057663,15.885881,-0.006206,-0.134817,0.106051,7.564000,15.657218

-3.330726,-2.273937,9.837004,15.900587,0.146210,0.076221,0.168669,7.560000,15.657218

1.801800,-1.371015,12.517031,15.888823,-0.085878,-0.253393,0.199313,7.536000,15.657218

0.961149,-8.536913,12.842753,15.874117,0.216557,0.204390,0.330679,7.536000,15.657218

-0.255521,2.571187,6.376200,15.888823,0.291965,0.188935,0.341604,7.552000,15.657218

-1.347650,2.813084,13.360078,15.879999,0.589071,0.074089,0.110048,7.548000,15.657218

-0.018414,4.343502,2.896237,15.871176,0.436655,0.269140,0.075408,7.548000,15.657218

-1.165629,-3.073874,6.220524,15.871176,-0.275600,-0.211292,-0.247545,7.512000,15.657218

1.662889,1.012030,12.344589,15.885881,0.510198,0.136442,-0.223297,7.536000,15.657218

-0.830326,4.944652,5.183481,15.888823,0.087589,0.026659,-0.207043,7.552000,15.657218

-2.549950,8.024647,8.514953,15.874117,-0.375790,0.170282,-0.260335,7.540000,15.657218

-1.797914,-6.161054,11.671589,15.879999,-0.617471,-0.392220,-0.140694,7.496000,15.657218

0.302518,-6.678378,9.470566,15.885881,-0.143701,-0.151338,0.044498,7.504000,15.657218

-0.435148,3.716007,9.762758,15.874117,0.038293,-0.021304,0.050627,7.524000,15.657218

-0.392037,0.250413,7.916198,15.882940,-0.353673,-0.029298,0.193983,7.512000,15.657218

-0.873436,2.317315,8.855046,15.891764,-0.311306,-0.031696,0.295772,7.504000,15.657218

-3.031349,-0.846506,13.077465,15.868235,0.019907,-0.066336,0.281117,7.500000,15.657218

3.274737,-8.730909,10.972243,15.879999,-0.106662,-0.148673,0.296038,7.524000,15.657218

-1.706903,1.732930,6.498346,15.874117,-0.230301,-0.408741,0.373846,7.484000,15.657218

0.106127,2.099368,6.704318,15.862352,-0.282528,-0.023969,0.469772,7.464000,15.657218

2.618502,1.246742,11.796130,15.882940,-0.049373,0.051440,0.555306,7.480000,15.657218

-1.675768,2.798714,12.066768,15.906469,-0.578035,0.328828,0.328280,7.472000,15.657218

-2.985843,-1.016552,9.798684,15.871176,-0.510353,-0.003451,0.101521,7.456000,15.657218

-1.687743,-3.720529,9.233459,15.877058,-0.261744,0.098071,0.090862,7.464000,15.657218

2.553837,2.403536,6.977350,15.877058,-0.220975,-0.161996,0.241414,7.484000,15.657218

1.140775,0.475545,11.590158,15.871176,0.164596,0.166019,0.415680,7.492000,12.890284

2.596947,-4.410295,11.333891,15.882940,-0.123183,-0.019705,0.378642,7.472000,12.890284

-4.396510,3.316038,12.703842,15.865294,-0.015266,0.094873,0.381306,7.472000,12.890284

-0.384852,-3.114589,11.398557,15.871176,0.144345,-0.037292,0.309095,7.476000,12.890284

0.671351,0.760553,10.488449,15.891764,0.191243,-0.037558,0.333077,7.480000,12.890284

1.907181,0.221673,11.482383,15.877058,0.446514,0.057302,0.438063,7.468000,12.890284

-0.099845,-2.499069,8.895761,15.856470,0.100912,0.098870,0.409818,7.440000,12.890284

-0.669860,0.401300,10.282477,15.874117,0.206165,0.046644,0.494553,7.456000,12.890284

0.278568,-3.595988,9.614267,15.871176,0.294364,0.065829,0.486559,7.440000,12.890284

-1.551227,-1.033317,8.227551,15.874117,-0.020861,-0.024768,0.131631,7.384000,12.890284

-0.562084,-1.553036,8.110195,15.877058,0.228814,0.033854,0.002930,7.364000,12.890284

1.473683,4.183036,12.143408,15.879999,0.381763,-0.057277,-0.069548,7.384000,12.890284

2.728673,-0.367502,8.383227,15.859411,0.005785,-0.039690,-0.031444,7.312000,12.890284

1.931132,-1.224919,8.227551,15.862352,-0.147964,0.014935,-0.019986,7.180000,12.890284

2.144288,1.076695,11.319521,15.865294,-0.006206,0.080484,-0.122041,7.100000,12.890284

0.819842,0.051627,9.247829,15.862352,0.067604,0.127382,-0.158813,7.104000,12.890284

-3.716325,2.140084,10.603411,15.874117,-0.101333,0.073290,-0.379177,7.132000,12.890284

-2.662516,-0.915961,9.781919,15.856470,-0.149563,-0.163595,-0.351199,7.000000,12.890284

0.963544,-0.908776,10.720766,15.877058,0.105442,-0.130820,-0.243015,7.192000,12.890284

1.567089,-1.914684,10.320798,15.882940,0.084658,-0.122027,-0.085536,7.076000,12.890284

0.903668,-0.324391,8.577224,15.868235,0.301558,-0.080192,0.129499,6.984000,12.890284

1.586249,-3.227155,11.726674,15.862352,0.069203,-0.124425,-0.018654,6.876000,12.890284

1.112035,0.176168,9.760364,15.865294,0.118498,-0.063405,0.006660,6.716000,12.890284

0.640216,-1.725478,10.941108,15.874117,-0.016865,-0.124692,-0.043701,6.524000,12.890284

0.625846,-2.443984,11.779365,15.871176,-0.117054,-0.062606,-0.071680,6.340000,12.890284

0.501305,-5.298847,11.360236,15.868235,0.028701,-0.037292,0.043965,6.148000,12.890284

0.314493,-3.231945,10.684841,15.879999,0.092119,-0.201166,0.157744,5.972000,12.890284

-0.178881,-3.576828,9.944780,15.865294,0.070002,-0.253393,0.042100,5.792000,12.890284

2.843634,-1.083612,9.528047,15.874117,0.132887,-0.225414,0.139092,5.604000,12.890284

-0.516578,4.633299,10.272898,15.862352,0.208563,-0.099111,0.127368,5.392000,12.890284

0.872533,3.505245,9.164003,15.871176,-0.068025,-0.199035,0.088198,5.212000,12.890284

1.349142,-0.171110,8.950847,15.874117,-0.086944,-0.218486,-0.028779,5.044000,12.890284

1.974242,-0.281281,9.671748,15.874117,-0.004341,-0.152137,-0.067683,4.872000,12.890284

2.038908,-0.235776,10.100456,15.888823,0.024704,-0.104441,0.003463,4.708000,12.890284

1.102455,1.373677,9.307705,15.871176,0.070002,-0.095114,0.019184,4.532000,12.890284

2.340680,2.130504,9.551997,15.877058,0.006051,-0.084722,0.065815,4.368000,12.890284

2.493961,0.794083,9.235854,15.874117,-0.020595,-0.007182,0.085533,4.208000,12.890284

1.986217,0.425250,9.664562,15.877058,0.006584,0.014668,-0.001600,4.052000,12.890284

2.314335,1.026400,9.750783,15.882940,0.014045,0.044246,-0.090865,3.896000,12.890284

1.507213,1.167706,9.429851,15.877058,0.002587,0.087412,-0.147355,3.712000,12.890284

1.186280,1.040770,9.614267,15.871176,-0.007538,0.095140,-0.200648,3.560000,12.890284

0.786312,0.748577,9.638218,15.868235,-0.006739,0.093808,-0.190522,3.420000,12.890284

0.482145,0.671937,9.671748,15.885881,0.007650,0.095673,-0.167340,3.296000,12.890284

0.012721,0.614456,9.772339,15.879999,0.023105,0.057036,-0.188923,3.204000,12.890284

-0.123795,0.609666,9.676538,15.879999,0.017509,0.039982,-0.228360,3.140000,12.890284

-0.119005,0.403695,9.738809,15.879999,0.015910,0.000279,-0.193453,3.080000,12.890284

0.412689,1.847891,10.495634,15.877058,0.060143,0.021596,-0.099925,3.016000,12.890284

0.601896,1.905372,10.390254,15.885881,-0.000877,-0.010113,-0.041569,2.956000,12.890284

0.496515,1.682635,8.902946,15.885881,0.044688,0.021596,-0.052761,2.900000,12.890284

0.999469,1.081485,9.247829,15.877058,0.004452,-0.017307,-0.015989,2.832000,12.890284

1.253341,1.445528,9.523256,15.882940,0.023371,-0.008780,0.040235,2.776000,12.890284

1.126405,1.026400,9.408296,15.885881,0.006584,0.024527,0.065548,2.716000,12.890284

1.191071,1.138966,9.566367,15.877058,0.002321,0.028524,0.075408,2.664000,12.890284

1.066530,1.117410,9.659773,15.882940,0.005252,0.052772,0.061019,2.612000,12.890284

0.815052,1.186866,9.468171,15.882940,0.000722,0.055437,0.070878,2.560000,12.890284

0.582735,1.184471,9.518467,15.891764,-0.000610,0.064497,0.107916,2.504000,12.890284

0.338444,1.115016,9.580737,15.891764,-0.000344,0.050907,0.120706,2.452000,12.890284

0.549205,1.083880,9.575947,15.885881,0.000722,0.039982,0.095126,2.400000,12.890284

0.551600,1.088670,9.616662,15.882940,0.000455,0.041847,0.048228,2.352000,12.890284

0.649796,1.086275,9.549602,15.882940,-0.003009,0.029324,-0.032243,2.292000,12.890284

0.762362,1.162916,9.590317,15.877058,-0.002476,0.018932,-0.067683,2.244000,12.890284

0.510885,1.071905,9.621452,15.879999,-0.001676,0.032255,-0.074877,2.192000,12.890284

0.834213,1.088670,9.619058,15.874117,-0.000077,0.018132,-0.045566,2.148000,12.890284

0.901273,1.045560,9.590317,15.874117,-0.001143,0.040515,0.002397,2.084000,12.890284

0.862953,1.052745,9.650192,15.897646,0.000455,0.053572,0.023714,2.036000,12.890284

0.829423,1.098250,9.571157,15.885881,-0.001143,0.059434,0.041034,1.992000,12.890284

0.695301,1.158126,9.559182,15.897646,-0.001410,0.073823,0.046630,1.948000,12.890284

0.448614,1.098250,9.619058,15.903528,-0.005407,0.067428,0.014921,1.908000,12.890284

0.369579,1.115016,9.511281,15.879999,-0.005673,0.066895,-0.015723,1.860000,12.890284

0.130077,1.675450,9.487331,15.885881,0.015644,0.059167,-0.015190,1.808000,12.890284

-0.609984,1.206026,9.616662,15.891764,0.005785,0.054371,0.017852,1.768000,12.890284

0.108522,1.222791,9.468171,15.888823,0.011913,0.013069,0.042899,1.728000,12.890284

0.079781,1.246742,9.482541,15.879999,0.010048,0.003743,0.074075,1.688000,12.890284

0.118102,1.021610,9.633428,15.877058,0.006584,0.013069,0.121772,1.648000,12.890284

-0.404013,1.356912,9.753179,15.882940,0.034030,-0.006116,0.138293,1.612000,12.890284

0.690511,1.007240,9.494516,15.871176,0.013779,-0.015975,0.215034,1.572000,12.890284

0.812657,1.210816,9.585527,15.871176,0.031099,-0.004251,0.268593,1.536000,12.890284

0.503700,0.976104,9.647798,15.877058,0.013779,-0.001852,0.252339,1.500000,12.890284

0.537230,1.637130,9.508886,15.888823,0.030832,0.013602,0.234219,1.464000,12.890284

0.752782,1.143756,9.753179,15.888823,0.004186,-0.003984,0.192385,1.424000,12.890284

0.565970,1.136571,9.731624,15.874117,0.005252,0.030123,0.188121,1.396000,12.890284

0.630636,0.921019,9.609477,15.874117,0.006051,-0.006915,0.062351,1.360000,12.890284

0.877323,0.913834,9.643007,15.891764,0.011114,-0.000787,0.001065,1.316000,12.890284

0.446219,0.188143,9.978311,15.879999,0.008449,0.019198,-0.023184,1.284000,12.890284

0.671351,0.377349,9.611873,15.868235,0.011380,-0.012244,-0.005597,1.256000,12.890284

0.685721,0.470755,9.633428,15.859411,0.010315,0.000546,0.006660,1.232000,12.890284

0.472565,0.882698,9.532837,15.882940,0.005252,0.007474,0.009591,1.204000,12.890284

0.568365,1.117410,9.580737,15.874117,0.005252,-0.005849,0.002663,1.184000,12.890284

0.618661,1.215606,9.561577,15.888823,0.002321,0.003210,0.006927,1.164000,12.890284

0.642611,1.332962,9.571157,15.906469,-0.003275,0.013069,0.015187,1.144000,12.890284

0.288148,1.285062,9.530441,15.885881,-0.003275,0.011737,-0.001600,1.128000,12.890284

0.324073,1.256322,9.590317,15.891764,-0.005140,0.004010,-0.008795,1.112000,12.890284

0.369579,1.162916,9.607082,15.903528,-0.006739,0.003210,0.002397,1.100000,12.890284

0.415084,1.050350,9.573552,15.906469,-0.006206,-0.000520,0.013855,1.088000,12.890284

0.843793,1.062325,9.599897,15.877058,-0.004341,-0.001053,0.023714,1.076000,12.890284

0.855768,1.000055,9.638218,15.888823,-0.005407,0.012004,0.019184,1.068000,12.890284

0.697697,0.959339,9.616662,15.865294,-0.005140,0.018132,-0.007729,1.056000,12.890284

0.417479,1.038375,9.609477,15.888823,-0.003808,0.018399,-0.023184,1.048000,12.890284

0.127682,1.009634,9.621452,15.894705,-0.003808,0.010938,-0.018654,1.036000,12.890284

0.204322,1.012030,9.647798,15.882940,-0.001943,-0.001320,0.005328,1.028000,12.890284

0.309703,1.031190,9.626243,15.891764,-0.004607,-0.007448,0.024513,1.020000,12.890284

0.683326,1.098250,9.590317,15.903528,-0.000344,-0.013044,0.026378,1.016000,12.890284

0.896483,1.153336,9.607082,15.888823,-0.002742,-0.001852,0.027711,1.008000,12.890284

0.812657,1.093460,9.590317,15.882940,-0.001943,0.015201,0.040235,1.004000,12.890284

0.647401,1.100645,9.595107,15.894705,-0.003275,0.026126,0.049028,0.996000,12.890284

0.491725,1.091065,9.621452,15.891764,-0.003808,0.027458,0.053824,0.992000,12.890284

0.295333,1.105435,9.587922,15.888823,-0.001943,0.023994,0.055956,0.984000,12.890284

0.240248,1.086275,9.592712,15.912352,-0.003541,0.016800,0.061552,0.980000,12.890284

0.254618,1.103040,9.580737,15.879999,-0.002476,0.008540,0.073276,0.976000,12.890284

0.422269,1.095855,9.609477,15.888823,-0.000877,0.006141,0.098590,0.972000,12.890284

0.522860,1.095855,9.597502,15.897646,-0.001676,0.008007,0.131365,0.976000,12.890284

0.395924,1.143756,9.611873,15.912352,0.002321,0.015201,0.168936,0.964000,12.890284

0.307308,1.126991,9.556787,15.888823,0.000189,0.007740,0.172933,0.964000,12.890284

0.393529,1.153336,9.607082,15.885881,0.001788,0.003210,0.163340,0.956000,12.890284

0.417479,1.107830,9.621452,15.897646,0.001521,-0.000787,0.148685,0.956000,12.890284

0.585131,1.074300,9.628637,15.894705,0.000189,-0.004517,0.118574,0.952000,12.890284

0.712067,1.095855,9.621452,15.879999,-0.000610,0.002144,0.088464,0.952000,12.890284

0.649796,1.093460,9.602292,15.897646,-0.000077,0.000546,0.055689,0.948000,12.890284

0.573155,1.086275,9.602292,15.906469,-0.003009,0.004010,0.019717,0.944000,12.890284

0.506095,1.074300,9.597502,15.900587,-0.003275,0.002677,-0.008795,0.944000,12.890284

0.472565,1.076695,9.607082,15.900587,-0.003541,0.002944,-0.010926,0.940000,12.890284

0.544415,1.081485,9.614267,15.897646,-0.001676,0.004276,0.005061,0.936000,12.890284

0.525255,1.047955,9.626243,15.888823,-0.002742,0.003477,0.006127,0.940000,12.890284

0.465380,1.026400,9.645403,15.924116,-0.004074,0.002677,0.002130,0.932000,12.890284

0.522860,1.021610,9.628637,15.900587,-0.003275,-0.000254,-0.000801,0.936000,12.890284

0.400714,0.990474,9.640613,15.900587,-0.002742,0.002144,0.001331,0.932000,12.890284

0.462985,0.997660,9.607082,15.897646,-0.003541,-0.002652,-0.000268,0.932000,12.890284

0.518070,1.062325,9.607082,15.888823,-0.003541,-0.003718,0.002397,0.928000,12.890284

0.417479,1.069510,9.602292,15.906469,-0.002209,-0.003185,0.000798,0.932000,12.890284

0.462985,1.076695,9.623847,15.900587,-0.004874,-0.007715,-0.002133,0.924000,12.890284

0.427059,1.081485,9.599897,15.894705,-0.003009,-0.009846,0.004529,0.924000,12.890284

0.585131,1.074300,9.597502,15.882940,-0.002476,-0.010379,0.008259,0.924000,12.890284

0.676141,1.064720,9.604687,15.900587,-0.001943,-0.006116,0.009591,0.920000,12.890284

0.654586,1.069510,9.590317,15.915293,-0.002476,-0.001852,0.006127,0.920000,12.890284

0.592316,1.071905,9.587922,15.900587,-0.002476,0.002411,0.003729,0.920000,12.890284

0.530045,1.086275,9.623847,15.900587,-0.002476,0.001079,0.010924,0.920000,12.890284

0.522860,1.079090,9.580737,15.909410,-0.002742,0.001878,0.013322,0.920000,12.890284

0.496515,1.064720,9.609477,15.897646,-0.002209,0.002944,0.020783,0.916000,12.890284

0.518070,1.059930,9.621452,15.906469,-0.000610,0.000546,0.026911,0.916000,12.890284

0.525255,1.098250,9.633428,15.894705,-0.001943,0.004010,0.033306,0.916000,12.890284

0.520465,1.083880,9.607082,15.900587,-0.002209,0.002144,0.032241,0.916000,12.890284

0.515675,1.074300,9.599897,15.918234,-0.001143,0.001612,0.028510,0.916000,12.890284

0.467775,1.040770,9.602292,15.900587,-0.001143,-0.000254,0.019184,0.912000,12.890284

0.508490,1.057535,9.585527,15.885881,-0.002209,0.000013,0.010657,0.912000,12.890284

0.551600,1.074300,9.602292,15.900587,-0.002476,0.000279,0.006394,0.908000,12.890284

0.546810,1.095855,9.599897,15.909410,-0.002209,-0.001053,0.004262,0.912000,12.890284

0.462985,1.074300,9.587922,15.900587,-0.003275,-0.002918,0.001331,0.912000,12.890284

0.498910,1.059930,9.597502,15.918234,-0.003808,-0.003185,-0.000001,0.908000,12.890284

0.460589,1.057535,9.595107,15.903528,-0.004074,-0.003984,0.002397,0.904000,12.890284

0.558785,1.045560,9.621452,15.924116,-0.002742,-0.005849,0.003463,0.908000,12.890284

0.604291,1.038375,9.611873,15.900587,-0.002742,-0.005316,0.003196,0.904000,12.890284

0.551600,1.059930,9.619058,15.921175,-0.003541,-0.004251,0.001331,0.904000,12.890284

0.549205,1.067115,9.643007,15.900587,-0.004074,-0.003451,-0.000268,0.908000,12.890284

0.506095,1.088670,9.619058,15.918234,-0.004074,-0.003185,0.003196,0.904000,12.890284

0.532440,1.074300,9.631032,15.903528,-0.003541,-0.004251,0.000532,0.904000,12.890284

0.623451,1.059930,9.619058,15.909410,-0.004074,-0.002918,0.002397,0.904000,12.890284

0.594711,1.052745,9.599897,15.921175,-0.003275,0.000279,0.001065,0.904000,12.890284

0.601896,1.050350,9.621452,15.909410,-0.003541,0.000546,-0.000801,0.904000,12.890284

0.515675,1.067115,9.619058,15.915293,-0.003009,0.001878,-0.000534,0.904000,12.890284

0.484540,1.067115,9.621452,15.924116,-0.003009,0.001079,0.001597,0.900000,12.890284

0.518070,1.069510,9.614267,15.918234,-0.003275,0.000812,0.001597,0.904000,12.890284

0.534835,1.079090,9.607082,15.912352,-0.003541,0.000812,0.000532,0.904000,12.890284

0.518070,1.083880,9.611873,15.927057,-0.003275,-0.001586,0.001597,0.900000,12.890284

0.518070,1.038375,9.592712,15.918234,-0.002742,-0.001053,0.002663,0.900000,12.890284

0.489330,1.052745,9.597502,15.921175,-0.003009,-0.000254,0.000532,0.900000,12.890284

0.506095,1.057535,9.623847,15.918234,-0.004074,-0.003984,0.001597,0.904000,12.890284

0.496515,1.038375,9.607082,15.935881,-0.003541,-0.003718,0.002397,0.900000,12.890284

0.501305,1.069510,9.635822,15.924116,-0.003275,-0.005849,0.003729,0.900000,12.890284

0.563575,1.059930,9.607082,15.924116,-0.002209,-0.006649,0.003196,0.896000,12.890284

0.506095,1.071905,9.604687,15.921175,-0.002476,-0.006116,0.002930,0.896000,12.890284

0.510885,1.057535,9.595107,15.932940,-0.002209,-0.007448,0.001331,0.904000,12.890284

0.501305,1.057535,9.568762,15.929998,-0.003275,-0.007448,0.003196,0.900000,12.890284

0.544415,1.074300,9.619058,15.927057,-0.003541,-0.008780,0.003463,0.896000,12.890284

0.532440,1.050350,9.604687,15.921175,-0.002476,-0.008514,0.004262,0.896000,12.890284

0.623451,1.064720,9.611873,15.932940,-0.003541,-0.007981,0.006127,0.896000,12.890284

0.625846,1.076695,9.616662,15.932940,-0.002209,-0.004784,0.011190,0.900000,12.890284

0.637821,1.083880,9.585527,15.921175,-0.001143,-0.002119,0.010657,0.896000,12.890284

0.589921,1.079090,9.575947,15.921175,-0.003009,0.000812,0.009858,0.896000,12.890284

0.503700,1.055140,9.592712,15.929998,-0.004074,0.003210,0.001864,0.896000,12.890284

0.549205,1.038375,9.597502,15.932940,-0.003541,0.000279,-0.001867,0.896000,12.890284

0.546810,1.052745,9.602292,15.935881,-0.003541,0.002144,0.002397,0.896000,12.890284

0.565970,1.028795,9.609477,15.909410,-0.003541,0.002944,0.002930,0.896000,12.890284

0.462985,0.990474,9.614267,15.906469,-0.003808,0.000546,0.003729,0.896000,12.890284

0.474960,0.978499,9.647798,15.912352,-0.004874,0.000279,0.003463,0.896000,12.890284

0.441429,0.980894,9.633428,15.912352,-0.003541,-0.003718,0.014121,0.896000,12.890284

0.376764,0.904254,9.664562,15.927057,-0.003009,-0.006649,0.029576,0.896000,12.890284

0.364789,0.851563,9.666958,15.906469,-0.003541,-0.015176,0.055956,0.892000,12.890284

0.589921,0.722232,9.719648,15.906469,-0.005940,-0.022370,0.081536,0.896000,12.890284

0.697697,0.909044,9.695698,15.924116,-0.003808,-0.009313,0.107916,0.896000,12.890284

0.652191,1.035980,9.575947,15.932940,-0.007805,-0.000254,0.158544,0.896000,12.890284

0.700091,1.004844,9.566367,15.912352,-0.008338,0.001878,0.185457,0.892000,12.890284

0.616266,1.103040,9.516071,15.929998,-0.003808,0.008540,0.195316,0.892000,12.890284

0.604291,1.110225,9.530441,15.921175,-0.004874,0.010138,0.213169,0.892000,12.890284

0.661771,1.059930,9.549602,15.912352,0.000988,0.008007,0.213702,0.896000,12.890284

0.896483,0.868328,9.597502,15.900587,0.002054,0.015201,0.189720,0.896000,12.890284

1.006654,1.074300,9.516071,15.912352,0.007650,0.020530,0.177463,0.892000,12.890284

0.920433,1.150941,9.504096,15.927057,0.008716,0.037584,0.176130,0.892000,12.890284

0.700091,1.275482,9.508886,15.921175,0.007916,0.043713,0.169469,0.892000,12.890284

0.381554,1.304222,9.556787,15.932940,0.002854,0.039183,0.123637,0.888000,12.890284

0.451009,1.184471,9.580737,15.909410,-0.002209,0.025593,0.058887,0.896000,12.890284

0.719252,1.126991,9.595107,15.924116,-0.002209,0.024527,0.014654,0.892000,12.890284

0.771942,0.997660,9.609477,15.929998,-0.001410,0.031189,-0.005064,0.892000,12.890284

0.515675,0.932994,9.659773,15.938822,-0.001410,0.032788,-0.029845,0.892000,12.890284

0.122892,0.947364,9.662168,15.924116,-0.003009,0.017333,-0.066883,0.892000,12.890284

0.158817,0.954549,9.621452,15.918234,-0.005940,-0.000787,-0.078341,0.892000,12.890284

0.297728,0.985684,9.621452,15.927057,-0.006206,-0.006116,-0.037306,0.892000,12.890284

0.582735,0.885094,9.638218,15.918234,-0.002209,-0.011978,0.061019,0.892000,12.890284

0.719252,0.880304,9.686118,15.944704,-0.000077,0.001878,0.086599,0.892000,12.890284

0.482145,0.985684,9.611873,15.932940,0.000189,0.004276,0.079138,0.892000,12.890284

0.266593,1.117410,9.575947,15.935881,-0.000344,-0.003718,0.076207,0.892000,12.890284

0.295333,1.232371,9.542417,15.944704,-0.003275,-0.022104,0.061019,0.892000,12.890284

0.676141,1.241951,9.496911,15.929998,-0.005407,-0.023436,0.055423,0.892000,12.890284

0.918038,1.170101,9.492122,15.918234,-0.004607,-0.011445,0.071677,0.892000,12.890284

0.918038,1.067115,9.583132,15.938822,-0.001143,0.001345,0.081003,0.892000,12.890284

0.709672,0.995264,9.604687,15.935881,-0.000877,0.012004,0.070611,0.892000,12.890284

0.470170,0.968919,9.619058,15.924116,-0.001676,0.004809,0.034639,0.892000,12.890284

0.570760,0.925809,9.647798,15.912352,-0.003541,-0.002385,-0.004798,0.892000,12.890284

0.661771,0.949759,9.614267,15.915293,-0.004874,-0.000787,-0.013591,0.892000,12.890284

0.700091,0.928204,9.631032,15.924116,-0.004341,0.000812,-0.010393,0.892000,12.890284

0.685721,0.932994,9.647798,15.932940,-0.002209,0.005076,-0.001600,0.888000,12.890284

0.539625,0.932994,9.654983,15.927057,-0.002209,0.006941,-0.002932,0.892000,12.890284

0.482145,0.952154,9.621452,15.921175,-0.001410,0.005875,-0.008262,0.892000,12.890284

0.496515,0.971314,9.602292,15.915293,-0.001676,0.000546,-0.008262,0.888000,12.890284

0.503700,1.033585,9.609477,15.900587,-0.002476,-0.004784,-0.002399,0.892000,12.890284

0.518070,1.083880,9.573552,15.912352,-0.002476,-0.005583,0.007193,0.892000,12.890284

0.556390,1.105435,9.544811,15.915293,-0.002742,-0.004784,0.014121,0.892000,12.890284

0.515675,1.134176,9.559182,15.927057,-0.004874,-0.005583,0.012256,0.892000,12.890284

0.587526,1.050350,9.604687,15.932940,-0.004074,-0.006915,0.004795,0.888000,12.890284

0.537230,0.997660,9.595107,15.912352,-0.003275,-0.009313,-0.002666,0.888000,12.890284

0.589921,0.949759,9.619058,15.935881,-0.005673,-0.013310,-0.005597,0.888000,12.890284

0.750387,0.906649,9.623847,15.921175,-0.004607,-0.008780,0.008259,0.892000,12.890284

0.671351,0.937784,9.631032,15.912352,-0.002476,-0.005583,0.014921,0.888000,12.890284

0.613871,0.923414,9.645403,15.927057,-0.003009,-0.004784,0.011989,0.892000,12.890284

0.565970,0.882698,9.659773,15.927057,-0.004341,-0.007981,0.001065,0.892000,12.890284

0.613871,0.906649,9.643007,15.906469,-0.003808,-0.009047,-0.001600,0.888000,12.890284

0.637821,0.976104,9.607082,15.932940,-0.001676,-0.006382,0.013055,0.888000,12.890284

0.546810,1.014425,9.595107,15.924116,-0.004074,-0.006649,0.027977,0.892000,12.890284

0.556390,0.961734,9.611873,15.927057,-0.005140,-0.004517,0.029043,0.888000,12.890284

0.690511,1.043165,9.599897,15.932940,-0.004074,-0.008514,0.038103,0.892000,12.890284

0.759967,1.110225,9.559182,15.927057,-0.000344,0.000279,0.067947,0.888000,12.890284

0.635426,1.184471,9.530441,15.932940,-0.000344,0.008007,0.087132,0.888000,12.890284

0.666561,1.162916,9.563972,15.924116,0.002054,0.008540,0.089264,0.888000,12.890284

0.678536,1.129385,9.580737,15.918234,0.001255,0.010138,0.087931,0.892000,12.890284

0.522860,1.141361,9.583132,15.924116,0.001788,0.008540,0.071144,0.888000,12.890284

0.482145,1.146151,9.549602,15.924116,-0.000610,0.001345,0.040501,0.888000,12.890284

0.604291,1.119806,9.626243,15.941763,-0.004074,-0.003984,0.013588,0.888000,12.890284

0.752782,1.047955,9.616662,15.921175,-0.004341,-0.002385,0.002397,0.888000,12.890284

0.736017,0.825218,9.621452,15.921175,-0.006739,0.001612,0.001597,0.888000,12.890284

0.951569,0.171378,9.137658,15.932940,-0.022727,-0.021837,0.005061,0.888000,12.890284

0.417479,0.707862,9.592712,15.929998,0.032165,-0.011978,-0.020519,0.888000,12.890284

0.556390,0.911439,9.645403,15.935881,-0.001676,-0.012511,-0.017588,0.888000,12.890284

0.673746,0.937784,9.626243,15.929998,-0.008338,-0.014909,-0.005864,0.884000,12.890284

0.759967,0.885094,9.592712,15.932940,-0.015266,-0.009047,0.017585,0.888000,12.890284

0.637821,0.940179,9.621452,15.935881,-0.009404,-0.006915,0.014654,0.888000,12.890284

0.570760,0.944969,9.616662,15.932940,-0.008338,-0.009846,0.002397,0.888000,12.890284

0.530045,0.978499,9.592712,15.929998,-0.005140,-0.011978,-0.000801,0.888000,12.890284

0.587526,1.055140,9.621452,15.947645,-0.005940,-0.016774,0.005594,0.892000,12.890284

0.685721,1.045560,9.585527,15.924116,-0.003808,-0.016774,0.013322,0.884000,12.890284

0.836608,0.971314,9.599897,15.938822,-0.003808,-0.013577,0.020783,0.884000,12.890284

0.949174,0.832403,9.671748,15.912352,-0.001943,-0.001852,0.027711,0.888000,12.890284

0.841398,0.760553,9.674143,15.941763,-0.000077,0.007740,0.022382,0.888000,12.890284

0.747992,0.736602,9.690907,15.941763,-0.000344,0.005076,0.008792,0.884000,12.890284

0.692906,0.765343,9.686118,15.915293,-0.000610,0.004010,0.000798,0.888000,12.890284

0.786312,0.715047,9.690907,15.938822,-0.000344,0.004010,0.014388,0.892000,12.890284

0.604291,0.904254,9.638218,15.938822,-0.001143,0.007740,0.030908,0.888000,12.890284

0.415084,0.944969,9.698093,15.944704,-0.003541,0.004276,0.061818,0.888000,12.890284

0.831818,0.614456,9.604687,15.944704,-0.003275,0.003477,0.051692,0.884000,12.890284

0.793497,1.100645,9.506492,15.924116,0.007117,-0.003984,0.084467,0.888000,12.890284

0.870138,0.889884,9.415481,15.935881,0.008982,0.018932,0.130565,0.888000,12.890284

0.405504,1.378468,9.465776,15.941763,0.014844,0.012803,0.148418,0.888000,12.890284

0.333654,1.323382,9.518467,15.950586,0.011913,0.004543,0.142556,0.888000,12.890284

0.733622,1.261111,9.587922,15.935881,0.001255,-0.003185,0.115110,0.888000,12.890284

0.870138,1.256322,9.554392,15.938822,0.003653,0.004276,0.103120,0.892000,12.890284

0.700091,1.179681,9.537626,15.938822,0.001255,0.011471,0.107916,0.888000,12.890284

0.530045,1.129385,9.573552,15.938822,-0.003009,0.002411,0.080737,0.888000,12.890284

0.736017,1.045560,9.549602,15.941763,-0.002209,-0.004251,0.043965,0.888000,12.890284

0.956359,0.932994,9.535232,15.935881,-0.003808,0.001612,0.041567,0.884000,12.890284

0.970729,0.901859,9.638218,15.929998,0.004719,0.019465,0.053291,0.892000,12.890284

0.594711,0.830008,9.695698,15.935881,0.003653,0.024794,0.075408,0.888000,12.890284

0.242643,0.645592,9.688513,15.944704,-0.002476,0.001079,0.065016,0.888000,12.890284

0.613871,0.643197,9.815449,15.929998,-0.003541,-0.008780,0.030642,0.888000,12.890284

0.635426,0.844378,9.688513,15.953527,-0.004874,-0.009313,0.022648,0.884000,0.000000

