ax,ay,az,gx,gy,gz,temp,volt,vel

-0.066315,2.746024,9.175979,17.421175,-0.004607,0.012537,-0.039171,3.832000,0.000000

0.084571,2.714888,9.281360,17.429998,0.003120,0.010938,0.042366,3.624000,2751.305699

0.343234,2.475386,9.360395,17.424116,0.005785,0.005342,0.138293,3.492000,2762.251688

0.676141,2.552027,9.252620,17.435881,0.008982,0.040249,0.246743,3.368000,2772.177894

-0.142955,2.734049,9.063413,17.453527,0.009782,0.027725,0.315490,3.276000,2565.750193

0.589921,3.050191,9.266990,17.459410,0.006318,0.021863,0.349597,3.212000,2488.055726

-0.229176,2.621483,8.816726,17.453527,-0.013134,0.010671,0.383971,3.144000,2573.834940

1.100060,2.647828,9.571157,17.485882,-0.004874,0.000546,0.312026,3.088000,2751.850869

1.859281,2.698123,8.981982,17.482941,-0.010736,0.025060,0.236084,3.040000,2715.791037

0.518070,2.643038,9.408296,17.471176,0.014045,0.062898,0.065016,2.980000,2082.147270

0.985099,2.657408,8.905341,17.494705,-0.002476,0.035452,-0.084203,2.924000,2659.103733

0.827027,3.936348,8.905341,17.485882,-0.004074,0.061033,0.002663,2.852000,2081.834958

-0.997977,4.252491,9.322075,17.497646,0.030033,0.122053,0.043965,2.796000,2771.624673

-1.271010,3.699241,8.661049,17.500587,0.006318,0.045045,0.057821,2.744000,2771.624673

-0.506998,3.708822,8.934082,17.488823,0.000988,-0.047151,-0.087401,2.696000,1113.271801

-0.600404,3.339988,8.874207,17.491764,-0.062163,-0.078860,-0.425275,2.640000,2758.410708

1.387462,3.237003,9.583132,17.515293,0.018042,0.079419,-0.245946,2.596000,2368.384647

-1.819469,2.757999,8.768826,17.521175,0.022305,0.005342,-0.025049,2.544000,2417.030428

-0.554899,3.375914,8.486213,17.527058,-0.050705,-0.061274,0.019450,2.492000,427.112033

-0.792006,4.561449,9.530441,17.515293,-0.031254,-0.040490,0.005861,2.448000,2578.614554

-1.096173,4.173456,9.235854,17.529999,-0.008871,0.007207,0.034905,2.396000,1433.155048

1.138380,4.592584,8.833491,17.541763,-0.008338,-0.055944,0.047695,2.332000,2761.702281

0.506095,4.812926,8.110195,17.544704,-0.015799,0.070625,0.107383,2.292000,1330.316122

-0.439938,4.738680,9.427456,17.553528,-0.025924,0.000546,0.055156,2.744000,2164.926672

0.309703,3.902818,8.756850,17.559410,0.047353,0.028791,0.071144,3.884000,1272.412726

0.249828,4.381822,8.411967,17.550587,-0.024592,0.030656,0.081003,4.044000,2658.085644

0.024696,4.585399,9.077783,17.565292,-0.060564,0.051440,0.062617,4.624000,2657.068403

-0.528554,4.264466,9.585527,17.565292,-0.026724,0.063164,0.096458,5.024000,2170.001436

-0.787216,4.453673,8.059899,17.565292,-0.003541,0.087945,0.137227,5.368000,2394.936103

-0.947682,4.357872,9.099339,17.571175,-0.045110,0.035186,0.139625,6.056000,2765.001905

0.077386,5.485926,7.964098,17.579998,0.022572,0.051174,0.075408,6.304000,1946.158381

-0.770451,4.930282,7.588080,17.574116,0.052682,0.079152,-0.023983,6.980000,2756.220705

-1.867369,4.585399,8.768826,17.579998,-0.005140,-0.003451,-0.095661,7.068000,2767.205892

-1.479376,4.250096,10.888417,17.591763,-0.079217,-0.047950,-0.034908,7.168000,2053.814530

-3.804940,2.487362,8.021579,17.600588,0.010048,-0.236872,0.651766,7.212000,2130.710418

-0.705785,3.483690,11.008168,17.594706,-0.036316,-0.062872,1.185757,7.248000,2270.783315

-1.098568,4.314762,9.190349,17.585880,0.073466,0.054371,1.587049,7.276000,2503.757598

-1.785939,2.899305,9.745994,17.603529,0.157668,-0.084189,1.703493,7.284000,2631.887606

1.260526,3.172337,10.387858,17.594706,0.133154,0.001345,1.623821,7.284000,2584.854664

2.987335,-0.168715,8.023974,17.597647,0.222952,0.073556,1.568930,7.292000,2501.502336

2.527491,1.184471,9.587922,17.609411,0.026835,0.174279,1.539619,7.264000,2322.046675

0.975519,1.788016,9.585527,17.615294,0.032431,0.338420,1.398660,7.268000,2210.416908

1.061739,2.925650,10.086086,17.612352,-0.024059,0.226772,1.079172,7.280000,2395.762439

2.093993,3.505245,9.551997,17.618235,0.049218,0.459927,0.845484,7.280000,2483.161485

1.023419,4.614139,8.795171,17.629999,0.061475,0.353875,0.651233,7.292000,2401.978819

3.545375,1.955667,8.122169,17.624117,0.103310,0.353342,0.411150,7.292000,2498.351876

1.368302,2.825059,7.573710,17.624117,0.131289,0.540932,0.378109,7.296000,2447.275183

-1.000372,0.638407,6.852809,17.647646,-0.068025,0.555321,0.229689,7.288000,2415.768888

1.825751,3.251373,10.246552,17.659410,-0.120785,0.429284,0.039702,7.284000,2379.341866

-1.491351,-0.247751,10.088481,17.668234,-0.033918,0.309642,-0.387438,7.256000,466.609741

1.619779,2.058653,10.272898,17.674116,-0.281195,0.174812,-0.603539,7.252000,2228.151356

1.614989,2.166429,8.289822,17.685881,-0.028589,0.332025,-0.931554,7.244000,2166.953738

2.831659,4.870406,9.513677,17.691763,0.150474,0.305112,-0.983781,7.260000,2629.893805

-1.287775,-0.863271,7.703041,17.691763,-0.137306,0.249155,-0.928357,7.248000,2171.358746

2.513121,1.914952,8.646679,17.688822,0.063074,0.203324,-0.662960,7.232000,1077.842103

-3.809730,4.192616,10.229787,17.694704,0.023105,0.217180,-0.333079,7.224000,2158.196905

-5.912558,-3.485817,10.457314,17.694704,0.132621,0.342950,-0.605937,7.212000,2253.463095

-1.345255,2.099368,6.383386,17.700586,-0.039247,-0.065803,-0.095928,7.184000,2673.438549

-3.045719,2.810689,8.526928,17.700586,0.169393,0.057036,-0.194785,7.216000,2049.267985

-0.789611,1.503009,8.198811,17.709410,-0.016332,-0.139880,-0.223830,7.212000,2140.564160

0.800682,3.280113,8.984377,17.730000,-0.112258,-0.021837,0.035971,7.220000,2107.747380

1.409017,2.125714,7.468329,17.721176,-0.149296,-0.001852,0.015720,7.232000,2079.652370

0.654586,2.951995,10.004656,17.724117,-0.027790,0.061033,0.016786,7.224000,2161.556491

1.365907,4.453673,9.932805,17.724117,-0.060564,0.140172,-0.101257,7.220000,2019.758458

-1.053063,3.723191,8.735295,17.703527,-0.043777,0.207587,-0.273392,7.244000,2045.946537

-2.966683,3.057376,7.901828,17.741764,-0.106396,0.083149,-0.604605,7.264000,2236.765381

-1.081803,6.623560,9.037067,17.732941,-0.047774,0.038650,-0.683744,7.288000,2517.374773

-2.073341,6.408009,9.453801,17.741764,-0.047241,0.090610,-0.442063,7.304000,2657.068403

-1.994306,5.560172,6.826464,17.735882,-0.077884,-0.028499,-0.062354,7.344000,2776.057437

0.271383,3.972274,11.345866,17.747646,-0.239627,0.041314,0.568896,7.352000,2770.518653

-0.641119,6.367293,9.556787,17.747646,-0.063229,0.270739,0.791659,7.364000,2682.735679

-2.185907,7.595939,6.936635,17.741764,0.089987,0.384252,0.751956,7.372000,2682.735679

-3.330726,5.052428,8.713739,17.735882,-0.181272,0.284062,0.588881,7.400000,2682.735679

-1.740433,8.098892,6.821674,17.750587,0.043889,0.328561,0.508942,7.408000,2682.735679

-1.723668,3.519615,8.558064,17.759411,-0.066160,0.232635,0.375178,7.412000,2682.735679

-3.431317,3.227422,11.537468,17.747646,-0.069891,0.247556,-0.004531,7.424000,2682.735679

-5.902977,3.876473,11.559023,17.759411,0.015111,0.310442,-0.080207,7.428000,56.066572

-4.554582,-0.099259,9.810658,17.759411,0.196039,-0.136150,-0.321888,7.416000,56.066572

-4.185749,-3.155304,8.093430,17.774117,0.215491,-0.367705,-0.621658,7.424000,207.041202

-1.773964,2.269415,9.226274,17.768234,0.043089,-0.226747,-0.542785,7.416000,899.633257

-0.990792,-0.343551,6.424101,17.794704,-0.047508,-0.307485,-0.300305,7.400000,899.633257

2.692748,5.229659,9.621452,17.777058,0.184048,0.090876,0.136694,7.396000,899.633257

5.346429,2.978341,11.597343,17.762352,0.200569,0.057302,0.336541,7.400000,854.776228

1.928736,3.850127,9.302915,17.774117,0.075331,0.212916,0.182525,7.392000,1118.652945

-0.978817,4.087235,7.243197,17.782940,-0.058166,0.202791,-0.142026,7.396000,1928.856806

-1.819469,2.544842,10.296848,17.794704,-0.210849,0.098337,-0.569698,7.396000,2255.293112

-3.941456,2.609508,9.101733,17.785881,-0.068292,0.197994,-0.960066,7.416000,2023.290092

-4.585717,4.084840,5.918752,17.806469,0.122229,-0.020505,-1.149787,7.424000,2321.658509

-2.276918,-2.740966,9.041858,17.782940,0.057478,-0.318676,-1.290746,7.424000,1934.230322

-6.599928,5.002132,7.671906,17.806469,0.114768,-0.254459,-1.283551,7.436000,2028.018007

-3.620524,3.270533,7.928173,17.794704,0.245867,-0.542505,-1.224396,7.432000,2011.857412

-3.251691,8.151583,7.715016,17.794704,0.391889,-0.659482,-0.840690,7.440000,2121.919259

-0.107030,4.362662,7.384504,17.809410,0.255194,-0.907292,-0.117778,7.456000,1916.874506

3.406464,10.721439,5.439748,17.788822,0.349788,-0.513460,0.580087,7.468000,253.017255

1.078505,2.310130,9.652588,17.797646,0.044955,-0.285635,0.796189,7.468000,2319.331843

0.264198,3.316038,7.283913,17.791763,0.079595,-0.373035,0.771141,7.472000,1235.175153

2.395765,1.160521,10.914762,17.809410,0.448379,-0.066070,0.947006,7.480000,1235.175153

2.199374,2.001173,8.977192,17.800587,-0.796267,-0.312281,0.863337,7.476000,2514.639600

-2.061366,-1.742243,14.052238,17.785881,-0.446402,0.061299,0.977916,7.480000,2255.659454

2.901114,1.620364,12.869099,17.809410,-0.287058,0.136708,1.001365,7.476000,2731.282300

-2.724787,-0.520783,10.897998,17.824116,-0.072022,0.546794,1.113012,7.468000,2135.625847

-1.314120,-2.101496,9.420271,17.818233,-0.073621,0.451933,0.678945,7.460000,2025.946869

-3.886371,4.147110,9.116103,17.829998,-0.009937,0.400506,0.604069,7.464000,2066.037739

-1.017138,2.683753,9.602292,17.818233,0.023638,0.271005,0.523864,7.456000,2036.942862

-2.530790,2.863380,9.609477,17.827057,0.016976,0.483376,0.450853,7.456000,1973.822212

-2.837352,1.641920,9.899275,17.821175,-0.137839,0.279798,0.409019,7.456000,1856.643914

-0.279472,0.386930,4.014711,17.818233,0.222952,0.369063,0.423674,7.464000,2284.606650

-5.768856,4.295601,13.106206,17.818233,-0.689416,0.230769,0.511074,7.452000,2213.235562

0.546810,-1.148278,7.698251,17.847647,-0.174077,0.338154,0.482562,7.468000,2137.269409

-1.009952,13.008682,7.803632,17.829998,0.399616,0.766892,0.313891,7.476000,2313.535412

-1.603917,1.596414,9.966335,17.856470,-0.257214,0.166818,-0.059955,7.488000,2332.970417

-5.244347,1.067115,9.666958,17.841763,-0.197260,0.332292,-0.821505,7.496000,2561.018041

-5.359308,1.201236,10.181887,17.838821,-0.133042,0.136442,-1.076510,7.504000,2489.840401

-3.072064,1.026400,10.466894,17.847647,0.212293,-0.108970,-1.414651,7.500000,2492.074475

-0.897387,-0.120815,9.638218,17.865294,0.004452,-0.200101,-1.416249,7.500000,2482.273703

0.271383,0.149823,9.525652,17.862352,0.087855,-0.454572,-1.216669,7.500000,2397.003215

2.462826,-0.070519,9.870534,17.868235,0.305555,-0.499871,-1.030678,7.492000,2358.729226

-0.229176,0.401300,7.595265,17.853529,0.210428,-0.323739,-0.834029,7.500000,2359.931863

-4.410880,0.935389,9.283754,17.850588,-0.102399,-0.427127,-0.585153,7.496000,2218.894059

-2.631381,0.135452,8.067084,17.865294,0.230946,-0.545169,-0.711456,7.496000,2401.148033

-4.638407,4.460858,9.037067,17.850588,0.053482,-0.060741,-0.068749,7.500000,2389.578266

-1.994306,1.562884,6.838439,17.868235,0.291699,-0.632569,-0.255006,7.508000,2510.547752

-3.893556,4.223751,5.923542,17.877058,0.306621,-0.802572,0.049028,7.512000,2569.072913

-0.502208,0.952154,5.842111,17.862352,0.193641,-1.055712,0.270725,7.516000,2627.902970

0.470170,3.900423,7.724597,17.865294,0.191776,-0.855332,0.567830,7.524000,2681.181532

0.707277,7.600728,7.762917,17.871176,0.186713,-0.701849,0.866801,7.536000,2728.598826

2.582577,4.654854,9.336445,17.882940,0.152606,-0.499338,1.131931,7.532000,2720.579762

0.843793,1.594019,10.098062,17.885881,0.007916,-0.367439,1.299003,7.536000,505.251980

1.236576,2.264625,10.900393,17.897646,0.090786,-0.333065,1.323251,7.540000,505.251980

1.150355,-1.275214,10.011841,17.865294,0.016710,-0.173454,1.316590,7.544000,1729.891557

1.444943,1.747301,11.511123,17.888823,-0.170347,-0.070866,1.335242,7.536000,2623.930412

1.650914,-4.398319,7.703041,17.879999,0.335399,0.134310,1.753055,7.528000,519.213249

0.434244,2.645433,12.016472,17.868235,0.137684,0.161489,1.749325,7.528000,2578.614554

3.265157,-0.664484,9.207114,17.862352,0.102777,0.346414,1.933717,7.532000,1701.696010

-0.835116,3.622601,9.604687,17.844706,0.273047,0.604616,1.869233,7.536000,1302.733758

-1.500932,2.822664,7.135422,17.865294,0.088388,0.620604,1.618492,7.536000,2402.810028

0.024696,2.592742,8.323352,17.877058,0.101178,0.673364,1.516970,7.544000,2746.951543

-0.329767,6.367293,8.378437,17.882940,0.353252,0.923039,1.384271,7.552000,2767.757631

-2.528395,3.553145,10.706396,17.888823,0.170192,0.862285,1.006960,7.552000,822.718300

-3.879186,0.774923,11.283596,17.885881,0.379898,0.770889,0.739432,7.564000,2114.165682

-4.087553,2.195169,7.252778,17.897646,0.141681,0.948886,-0.027447,7.572000,2065.423072

-0.509393,3.129227,8.838281,17.918234,0.258924,0.468987,-0.490825,7.572000,2112.236081

-2.942733,0.671937,10.280083,17.915293,-0.196194,0.431416,-0.523067,7.568000,2754.034092

0.086966,0.583321,10.795012,17.941763,0.075864,0.417560,-0.445793,7.560000,1895.419003

-1.412316,-0.360317,9.743598,17.929998,-0.020062,0.222775,-0.425808,7.556000,2746.951543

-1.551227,1.450318,11.135105,17.929998,-0.113324,0.354408,-0.472173,7.552000,2675.498881

3.018471,7.658209,9.017907,17.927057,-0.004341,0.425820,-0.474837,7.560000,2685.329528

-2.696046,1.299432,8.361671,17.947645,-0.125048,0.308843,-0.373848,7.556000,2631.389050

-5.261112,2.338870,12.014077,17.965292,-0.082148,0.217446,-0.632317,7.548000,2580.051956

0.348024,3.134017,7.698251,17.953527,0.198437,-0.006915,-0.459383,7.552000,2678.595523

-4.212094,1.742511,6.915080,17.956469,-0.135707,-0.115099,-0.397297,7.556000,2691.575782

2.058068,4.468043,13.666640,17.974117,0.142480,-0.137748,-0.276056,7.564000,2768.861319

2.393370,6.070311,7.882668,17.977058,0.150740,-0.148673,-0.105520,7.572000,2773.285397

2.412530,5.529037,6.182204,17.985882,-0.049639,0.117523,-0.067150,7.576000,2774.393535

1.557508,5.457186,10.548325,17.980000,0.009782,0.183605,-0.099125,7.580000,2159.203764

1.895206,5.102723,10.150752,17.982941,-0.036583,0.327495,-0.220366,7.584000,2777.167906

-3.694769,1.898187,10.933923,17.991764,0.091319,0.329094,-0.411686,7.584000,2775.502520

3.813617,0.736602,6.663603,17.980000,-0.135973,-0.010912,-0.694403,7.584000,2086.840860

0.625846,5.289535,10.790222,18.000587,-0.021128,0.327762,-0.531061,7.588000,2777.167906

-2.569110,4.532709,9.219090,17.991764,0.192841,0.240362,-0.426874,7.588000,2122.568039

-1.165629,0.456385,8.009604,17.991764,-0.310506,-0.294961,-0.473772,7.584000,2128.424220

-1.472191,5.780514,14.169595,17.982941,0.217622,0.245691,-0.362390,7.584000,2774.948028

-0.030389,-0.444142,9.951965,17.988823,-0.017930,0.051707,-0.485496,7.592000,2774.948028

-0.990792,6.712176,-3.062572,17.991764,0.086523,-0.235806,-0.549980,7.588000,2771.071451

0.324073,1.409603,11.810500,17.997646,-0.600151,-0.298159,-0.221165,7.584000,2759.506981

-0.138165,-2.166161,25.004663,18.006470,0.259191,0.070092,-0.107652,7.592000,2773.285397

-4.521051,0.303104,6.874364,17.994705,0.278909,-0.048750,-0.185459,7.604000,2767.205892

-0.930917,1.546119,9.887300,17.997646,0.032697,-0.050082,0.401291,7.588000,2777.167906

-4.650382,0.422855,13.738491,17.997646,-0.073355,-0.177185,0.248342,7.592000,2080.587190

2.470011,3.871683,6.007368,17.991764,0.222952,-0.235540,0.578222,7.592000,2776.612565

-0.576454,5.814044,8.328141,18.009411,0.131555,0.224374,0.888118,7.584000,2777.167906

-0.878226,-2.403268,8.632309,17.997646,-0.066960,-0.029565,0.735435,7.584000,2689.490449

-2.688861,4.525523,-4.971402,18.012352,0.147276,0.118855,0.351196,7.584000,2730.745181

-0.255521,-8.010009,30.977842,17.980000,-0.517015,-0.212891,0.406620,7.584000,2730.745181

-2.875673,4.697965,12.646362,18.009411,-0.275866,-0.397549,-0.334412,7.596000,2776.612565

0.719252,2.590347,-0.147833,18.018234,0.490214,-0.051947,-0.197184,7.592000,2729.671580

-1.165629,5.488321,13.822316,18.021175,-0.231100,0.524145,0.158011,7.580000,1662.178491

-3.139125,0.703072,5.145160,18.024117,0.092652,0.340552,0.153215,7.584000,2605.712028

-1.290170,2.619088,7.044411,18.018234,0.062808,0.154028,0.133763,7.580000,2635.884531

-2.571505,-2.309863,11.156660,18.018234,-0.188200,-0.038624,-0.484697,7.576000,2630.391938

-2.461334,-2.717016,6.661208,18.027058,0.106774,-0.305087,-0.896381,7.588000,2672.923890

0.321678,1.855076,5.054150,18.053528,0.750814,0.173213,-0.827101,7.596000,2775.502520

-0.018414,7.605518,11.669194,18.021175,-0.127447,-0.710110,-0.829233,7.580000,2649.463779

2.860399,4.791370,10.984219,18.053528,-0.574571,0.389847,0.056755,7.576000,2546.925829

-8.788976,0.233648,20.118822,18.053528,-0.531937,0.361869,0.463110,7.572000,2445.981861

-6.096974,4.755445,14.095348,18.053528,-0.299315,0.070625,0.227025,7.576000,2431.845790

-1.917665,3.076536,6.630073,18.029999,-0.348077,-0.142012,0.239548,7.560000,2387.934492

-0.037575,0.312684,8.701765,18.044704,-0.184469,0.031988,0.495352,7.552000,2419.978965

1.076110,4.034544,7.770102,18.053528,0.019907,0.022662,0.596342,7.572000,2478.728932

0.398319,2.288575,9.925620,18.059410,-0.031520,0.218512,0.889450,7.576000,2442.539853

-2.485285,1.931717,8.471843,18.065292,0.060942,0.214249,0.682143,7.576000,2458.976317

-4.695888,2.834639,13.669035,18.056469,-0.190332,0.191333,0.348798,7.572000,2458.105697

-0.272286,3.510035,10.699211,18.062351,-0.324629,0.261679,0.189986,7.572000,2533.449980

-2.672096,3.653736,13.712146,18.059410,-0.076819,0.504959,0.127901,7.584000,1750.168790

-1.721273,3.205868,4.572751,18.082939,-0.109061,0.427152,-0.086868,7.576000,1332.358444

1.416202,-1.421310,8.455077,18.065292,-0.093339,0.190800,-0.017854,7.572000,1332.358444

-1.443451,-2.443984,11.142290,18.071175,-0.118920,0.079685,-0.434602,7.568000,2442.110370

2.187399,3.237003,11.348262,18.085880,0.036961,0.087412,-0.639245,7.580000,2488.055726

-2.212252,4.743470,5.964257,18.088821,0.022838,0.354408,-0.919030,7.572000,2430.568783

-1.093778,4.908727,8.093430,18.106470,0.071867,0.255017,-0.813778,7.580000,2498.801488

-1.852999,4.139925,11.333891,18.100588,-0.044310,0.235299,-0.726112,7.580000,2620.464249

-1.596732,7.078614,7.348578,18.094706,-0.020062,0.280331,-0.652301,7.584000,2612.575704

-4.022887,3.878868,10.835728,18.103529,-0.137572,0.143903,-0.544384,7.584000,2553.952442

-0.396827,5.054823,14.698894,18.106470,0.161399,0.125783,-0.510277,7.580000,2565.276004

-0.336952,-0.238171,14.631833,18.115294,0.315148,0.461792,-0.648571,7.592000,2718.981755

-4.360585,5.038058,-0.049637,18.103529,-0.148497,-0.046885,-0.711456,7.584000,2661.652239

-1.448241,1.105435,0.848495,18.124117,-0.950816,-0.393019,-0.578758,7.568000,2296.318801

4.843475,4.832086,23.179657,18.106470,0.717773,-0.169457,-0.792461,7.584000,2643.411395

-2.854117,4.968602,-6.044371,18.091763,0.591469,-0.310150,-1.108485,7.584000,2593.544968

-1.141679,0.456385,13.156501,18.097647,-0.145832,-0.069267,-0.629386,7.580000,2418.293239

-0.389642,-0.326786,8.996352,18.094706,-0.061897,-0.479353,-0.866004,7.576000,2503.306292

0.151632,6.391243,13.551680,18.100588,0.473426,-0.147874,-0.471640,7.592000,2600.831558

-2.554740,4.499178,6.325905,18.112352,0.589071,0.170282,-0.172935,7.588000,2660.632243

-1.041088,2.044283,13.187636,18.103529,0.213359,-0.142545,0.299236,7.592000,2596.454731

-3.778595,3.979459,10.208232,18.100588,0.441717,-0.079659,0.519068,7.596000,2693.141796

-1.184789,-2.302677,11.211745,18.112352,-0.476246,-0.529182,0.711453,7.592000,2660.632243

-7.835758,4.149505,4.939188,18.091763,0.102244,-0.147341,0.464443,7.600000,2747.495018

3.430414,-4.154027,9.432246,18.097647,-0.467453,-1.040523,0.200645,7.600000,2668.301280

-5.902977,-2.719411,13.807946,18.115294,-0.861817,-0.358379,-0.049297,7.592000,2534.374841

-3.555858,-4.934804,0.201840,35.771175,0.053482,-0.060741,-0.068749,7.588000,2465.963308

-8.777001,0.377349,4.778722,0.382938,0.053482,-0.060741,-0.068749,7.580000,2592.092523

-1.620682,1.907767,12.208074,18.103529,-0.269737,0.209452,0.433267,7.580000,2346.770233

-2.245783,-4.082177,5.274491,18.112352,-0.297450,-0.038624,-0.057291,7.580000,2427.169998

-2.463729,1.685030,8.059899,18.094706,0.020707,-0.216355,-0.832963,7.580000,2430.143325

-0.301027,-3.804355,18.475840,18.103529,-0.531137,0.105532,-0.864406,7.580000,2408.645234

-5.342543,1.196446,6.900710,18.121176,0.508333,0.510288,-1.155649,7.600000,2660.122457

0.479750,4.384217,8.227551,18.121176,0.200569,-0.697319,-1.183361,7.592000,2483.605799

-5.479059,-3.454682,11.551838,18.094706,0.014312,-0.677068,-0.372782,7.596000,2578.135915

0.973124,2.267020,9.561577,18.091763,0.329803,-0.347188,-0.182262,7.588000,2476.077028

-5.574860,4.147110,4.670947,18.103529,0.020174,-0.114300,0.096458,7.592000,2514.639600

-4.571347,-1.023737,0.201840,35.771175,0.053482,-0.060741,-0.068749,7.576000,2385.883059

0.659376,-3.722924,8.335326,18.094706,-0.015532,-0.667742,-0.019986,7.596000,2519.201612

0.309703,2.278995,6.227709,18.088821,0.122229,-0.104441,0.309095,7.580000,2434.403831

-0.162116,3.603441,16.384987,18.079998,0.073733,-0.015708,0.633114,7.580000,2423.357621

-1.108148,6.101446,12.093113,18.079998,-0.314237,-0.109770,0.612329,7.584000,2392.872593

-5.692215,3.275323,10.795012,18.453527,0.053482,-0.060741,-0.068749,7.588000,2550.200028

1.497633,5.576937,11.592553,18.056469,-0.167149,-0.082324,-0.168672,7.592000,2445.981861

6.069726,3.763907,19.512882,18.053528,-0.101333,0.385051,-0.324286,7.596000,2506.921831

-1.975145,2.300550,8.500583,18.056469,1.001022,0.561982,-0.943811,7.616000,2755.673628

0.877323,4.446488,-5.709068,18.053528,0.232278,-0.161730,-0.677882,7.600000,2690.532692

0.568365,2.468201,4.084167,18.050587,-0.587627,-0.197436,-0.247279,7.592000,2392.460272

-2.188302,10.120289,10.162726,18.056469,-0.033918,0.631529,-0.432470,7.588000,2555.362511

-5.258717,-0.365107,7.271938,18.056469,-0.377388,0.120720,-0.459916,7.588000,2373.647774

-0.207621,-4.103732,15.525175,18.047646,-0.137839,-0.111369,-0.082072,7.576000,2275.994107

-2.724787,-5.095270,11.650034,18.050587,-0.353940,-0.433788,0.094326,7.568000,1070.694718

-6.113739,6.142161,7.789262,18.053528,-0.216711,0.060233,0.237683,7.564000,2175.100143

-3.021769,9.543089,7.101892,18.044704,-0.460525,0.057835,0.587016,7.564000,1336.461945

-1.965565,11.365699,17.383711,18.038822,-0.054169,0.250488,0.480431,7.564000,2139.244988

6.515199,2.075418,13.829502,18.041763,0.362578,0.403171,0.499616,7.560000,2173.397890

-3.084039,-4.352814,3.756049,18.029999,0.236808,-0.150006,0.068746,7.564000,2164.926672

-0.645909,-1.016552,11.046489,18.021175,-0.437342,-0.100710,-0.174801,7.572000,2260.432924

-1.601522,9.504769,4.922423,18.038822,0.424664,0.184938,-0.489493,7.584000,2381.382281

-3.273246,4.465648,14.739609,18.041763,0.075864,0.212117,-0.896381,7.596000,2548.328058

-1.151259,9.444894,6.965375,18.038822,0.161132,0.004276,-1.240384,7.608000,2610.610930

0.000746,3.917188,9.954360,18.032940,0.075065,-0.102575,-0.752491,7.596000,2751.305699

-4.403695,6.922938,2.968088,18.021175,0.100379,0.123118,-0.570498,7.588000,2272.641512

-1.500932,-2.846347,18.710552,18.027058,0.082526,-0.025834,-0.388504,7.580000,2278.982266

-4.600087,0.439620,11.465617,18.009411,-0.408564,-0.509197,-0.594746,7.564000,2776.612565

-1.172814,-0.515993,9.707673,35.771175,0.053482,-0.060741,-0.069015,7.552000,2768.861319

-3.024164,-0.573473,6.869575,18.024117,0.031099,-0.269114,-0.484430,7.568000,2270.783315

0.247433,9.315562,3.176454,18.000587,0.345791,0.103933,-0.047965,7.576000,2265.596254

-1.132098,-3.904946,19.342836,18.024117,-0.099734,-0.401813,-0.068749,7.580000,2391.224370

-2.921178,2.595137,0.565883,18.018234,0.430259,-0.191307,-0.046099,7.588000,2415.768888

-0.250731,1.704190,8.979588,18.021175,0.199769,-0.752211,0.181460,7.596000,2601.318673

-2.971473,5.572147,4.699687,17.997646,0.215757,-0.401813,-0.068749,7.612000,2680.146704

-3.419342,5.141044,-1.512994,18.018234,-0.148497,-0.188643,0.220363,7.600000,2485.828856

1.775455,-4.510885,15.491645,18.009411,-0.625731,-0.779923,0.278452,7.592000,2372.025824

0.558785,-0.298046,19.606289,18.009411,-0.121851,-0.135883,0.245944,7.584000,2372.431152

-6.164034,3.759117,-0.531036,18.000587,0.235209,0.200925,0.455383,7.584000,2370.406205

-0.399222,-1.198573,9.755573,18.018234,-0.704071,-1.164428,0.694666,7.576000,2177.487831

-2.868488,1.332962,13.958833,18.015293,-0.210050,0.002411,1.382140,7.564000,2095.027098

-2.011071,5.603282,7.001300,18.021175,-0.179673,-0.084456,1.137261,7.556000,2776.057437

0.204322,2.729259,11.271621,17.991764,-0.004874,0.039183,1.574259,7.564000,2072.513461

-2.921178,3.095696,10.854887,18.012352,-0.117054,0.166818,0.940078,7.568000,2219.958337

0.623451,3.859708,11.930251,18.012352,-0.072555,0.176677,0.197181,7.584000,2413.249834

1.967057,9.727506,3.435116,18.000587,0.509665,0.278466,-0.531860,7.608000,2634.384201

-1.558412,2.290970,9.465776,18.003529,-0.431747,0.209719,-0.491625,7.604000,2468.155006

3.928578,2.456226,13.173266,18.018234,0.421200,0.448736,-0.226761,7.616000,2665.740061

-4.456386,2.966366,5.248146,18.006470,-0.215113,0.347213,-0.351465,7.616000,2615.035643

-5.404813,5.301510,10.304033,17.994705,-0.125581,0.081284,-0.273392,7.616000,2622.939020

-7.308854,4.396193,15.086887,18.015293,-0.167682,0.270739,-0.169738,7.616000,2644.921896

2.972965,1.898187,8.004814,18.006470,0.237341,0.086880,-0.277655,7.616000,2653.514098

2.216139,0.269574,8.979588,17.994705,-0.111992,-0.013044,-0.217701,7.596000,2404.890913

2.022142,2.307735,9.245434,18.009411,-0.051771,-0.158266,-0.278988,7.596000,2365.560484

-5.081486,6.058336,10.186677,17.997646,0.006584,-0.073264,-0.130568,7.584000,2338.470850

-1.702113,6.819952,7.327023,17.991764,0.088921,0.179076,0.317622,7.592000,2302.792616

-0.928522,3.457345,15.156343,17.994705,-0.063229,-0.043154,0.160409,7.584000,2282.728748

-0.710575,6.156532,8.593988,17.994705,-0.013401,-0.087653,0.026645,7.588000,2358.729226

-1.704508,7.028319,6.927055,18.000587,-0.101067,-0.070866,0.238749,7.592000,2379.749737

-3.220556,3.572305,0.201840,35.771175,0.053482,-0.060741,-0.068749,7.592000,2486.719180

0.731227,5.220079,9.125683,17.982941,0.200569,-0.143078,0.648568,7.604000,2561.963031

-4.271969,1.263507,6.263635,17.974117,0.268517,0.001878,1.291009,7.612000,2555.362511

-2.959498,4.968602,11.834451,17.977058,-0.011802,0.304846,1.010691,7.608000,2494.312787

1.368302,4.918307,12.368540,17.971176,0.244802,0.146301,0.383971,7.620000,2633.884586

0.446219,7.289376,-1.613585,17.965292,-0.393909,0.196129,0.165738,7.608000,2458.105697

1.710790,4.606954,19.891296,17.950586,0.157935,0.289658,0.156412,7.608000,2500.601418

-2.322423,-0.599819,11.863191,17.974117,0.283972,0.593158,-0.099125,7.612000,2630.890494

-2.257758,9.066481,-0.382545,17.971176,0.351387,0.343216,-0.314960,7.616000,2543.193968

4.187240,0.147428,15.819763,17.985882,-0.351541,-0.013044,-0.174268,7.600000,2395.762439

0.067806,3.083721,10.718371,17.941763,-0.138904,0.074089,0.135362,7.600000,2417.872020

-0.454308,3.208262,12.536191,17.965292,-0.157823,0.399174,-0.305101,7.604000,2483.161485

-1.184789,1.012030,11.908696,17.974117,-0.260678,0.303247,-0.570764,7.596000,2322.823643

-0.689020,6.281073,8.766430,17.953527,-0.040580,0.345348,-0.459649,7.596000,2354.330150

-3.898346,5.220079,8.787985,17.947645,-0.103465,0.360270,-0.515873,7.604000,2472.109555

-0.293842,0.214488,9.451406,17.962351,-0.263076,-0.586738,-0.834295,7.596000,2331.012212

3.708236,1.227581,18.025576,17.953527,0.359380,0.239563,-0.470041,7.592000,2381.382281

-2.743947,6.508600,-0.787303,17.953527,0.771065,0.466589,-0.494822,7.608000,2512.364632

-0.497418,7.603124,-5.936595,17.980000,0.041224,-0.406342,-0.301370,7.600000,2305.086229

4.517753,-6.434086,33.051929,17.977058,-0.482907,-0.276309,0.133230,7.600000,2428.868225

-4.238439,-4.922829,3.914120,17.965292,-0.588960,-0.473491,-0.414350,7.612000,2512.819329

-2.617011,-0.111235,13.187636,17.962351,0.275711,0.071958,-0.288580,7.604000,2425.897864

-0.689020,3.155572,7.743757,17.971176,-0.048574,-0.043954,-0.569432,7.592000,2259.329659

-0.880621,0.109107,16.416122,17.959410,0.143279,-0.187310,-0.573162,7.592000,2362.742889

0.376764,7.634259,1.981340,17.944704,0.287969,0.012803,-0.634981,7.604000,2365.963482

-3.867211,8.585081,1.222118,17.947645,-0.318767,-0.062339,-0.153217,7.592000,2196.083999

2.769388,-5.428178,20.257734,17.968235,-0.247088,0.084215,0.188121,7.580000,2137.927511

4.180055,-2.537390,7.271938,17.965292,0.541641,-0.447378,-0.425542,7.596000,2478.728932

-10.669066,9.243711,0.649709,17.959410,-0.046975,0.378123,-0.170804,7.600000,2425.474102

-1.991910,0.262388,17.335810,17.947645,-0.593223,-0.359179,-0.187591,7.608000,2485.828856

-2.367929,1.737720,7.746151,17.956469,0.370838,0.214782,-0.187324,7.620000,2649.969327

-3.591784,0.427645,10.747111,17.965292,-0.201790,-0.162263,-0.215037,7.604000,2462.464939

1.643729,-2.048805,12.643967,17.968235,0.246667,-0.157999,-0.041569,7.596000,2322.046675

-3.563043,8.043807,-3.984654,17.965292,0.083059,-0.013843,0.312026,7.592000,2183.994911

-1.905690,-9.329664,38.795185,17.971176,-0.896191,-0.743950,0.610997,7.560000,2301.647611

7.276815,15.018104,21.100780,17.968235,1.261622,0.541465,0.225692,7.624000,2776.612565

-12.369531,11.353724,-12.834250,17.974117,0.627975,0.340019,0.277919,7.612000,825.751643

7.763004,5.852364,0.891606,17.991764,-0.877538,-1.077561,0.728774,7.588000,2062.661837

-2.600245,3.984249,24.892097,17.956469,0.664214,0.007207,0.669352,7.588000,2282.353718

-0.995582,0.276759,10.445339,17.980000,0.159267,-0.028765,0.179594,7.592000,2260.800961

0.520465,0.638407,7.173742,17.977058,-0.102399,-0.270980,0.395163,7.592000,2228.151356

0.860558,2.221514,9.662168,17.977058,-0.082414,-0.134284,0.564633,7.588000,2218.894059

-3.117570,4.001014,7.717412,17.965292,-0.133575,0.186004,0.849481,7.580000,2158.532524

-0.495023,-0.214220,12.931370,17.968235,-0.347544,-0.119629,0.733037,7.576000,2097.558866

0.726437,-1.560221,12.117063,17.965292,0.053215,0.111394,0.358391,7.592000,2281.228841

-3.845655,19.195017,4.903264,17.962351,0.389491,0.768224,-0.202513,7.612000,2570.499720

3.279528,-0.448932,11.908696,17.965292,-0.830108,-1.103941,-0.612599,7.576000,2121.595081

5.399120,-1.677577,8.979588,17.968235,0.341261,0.319501,-0.444194,7.576000,2186.057786

0.206717,3.462135,4.694897,17.982941,0.123028,0.236631,-0.728510,7.584000,2253.097388

-1.637448,2.420301,6.539062,17.980000,0.212027,-0.024235,-1.006430,7.596000,2318.557205

-2.126032,3.852523,11.999706,17.980000,0.099313,-0.010912,-0.975254,7.600000,2417.872020

1.306031,-0.805790,5.684040,17.974117,-0.027523,-0.418333,-0.855612,7.596000,2410.317611

0.949174,2.271810,11.906301,17.982941,0.152339,-0.099911,-0.143358,7.592000,2320.494646

-3.131940,2.154454,7.880273,17.985882,0.281840,-0.125225,0.294173,7.592000,2327.885906

-1.584757,1.534144,9.276569,17.985882,0.193641,-0.233142,0.676280,7.596000,2323.601035

-1.177604,1.079090,10.550720,17.991764,0.094250,-0.107372,0.951003,7.588000,2308.919158

-0.298632,1.982013,6.304350,17.977058,0.106508,-0.067402,1.104752,7.588000,2305.468886

0.055831,0.267179,6.979745,17.988823,0.083059,0.007474,-0.068749,7.592000,2300.503665

0.017511,3.064561,9.805869,17.985882,0.172057,0.175345,0.962195,7.596000,2374.053526

-1.663793,5.952955,8.091035,17.982941,0.010581,-0.060741,-0.068749,7.604000,2425.474102

0.623451,2.326895,8.795171,0.382938,0.053482,-0.060741,-0.068749,7.608000,2403.641874

1.296451,2.041888,0.201840,35.771175,0.053482,-0.060741,-0.068749,7.604000,2389.989527

1.076110,4.781791,11.029724,17.988823,0.225616,0.263278,-0.495355,7.604000,2331.403556

-3.345096,-1.023737,0.201840,35.771175,0.053482,-0.060741,-0.069015,7.588000,2234.965240

-1.127308,3.871683,9.678933,17.991764,-0.272935,0.166818,-1.228393,7.584000,2142.545884

-0.724945,0.547396,10.138777,17.977058,-0.422687,-0.057543,-0.773009,7.580000,2118.681716

-1.441056,-1.543456,15.003061,17.997646,-0.089875,0.160690,-0.506813,7.588000,2356.327765

-7.363939,8.050992,-1.970443,18.006470,0.119831,0.310708,-0.792194,7.588000,2218.185316

-0.011229,4.820111,9.549602,17.968235,-0.272935,-0.279773,-0.097260,7.584000,2415.768888

-2.432594,2.456226,8.570039,17.997646,0.055880,0.065563,0.152415,7.600000,2371.620707

-0.890202,-0.408217,0.817360,36.527058,0.121962,0.007740,-0.000268,7.608000,2351.141128

-2.054181,2.267020,12.155383,17.977058,0.054281,-0.144143,0.319754,7.592000,2372.836481

-1.567992,6.225987,9.937595,17.968235,0.236541,0.049575,-0.215569,7.608000,2453.328626

-1.266220,4.333922,9.714858,17.980000,0.067338,-0.001053,-0.564369,7.612000,2487.164554

-5.886212,4.393797,13.319363,17.982941,-0.345946,-0.053813,-0.448458,7.604000,2355.927946

5.209913,4.436908,12.713423,17.956469,-0.238561,-0.106039,-0.385306,7.576000,2246.536066

-4.264784,1.553304,9.084968,17.968235,-0.145299,0.012270,-0.354130,7.576000,2158.532524

-0.827931,1.098250,8.443103,17.977058,0.175521,-0.212624,-0.349600,7.596000,2273.757914

-1.309330,2.640643,6.742639,17.982941,0.008183,-0.328802,-0.145223,7.596000,2340.441556

-1.201554,1.122200,7.408454,17.974117,0.013246,-0.192373,0.087931,7.604000,2320.494646

-1.242269,3.045401,12.591276,17.994705,-0.013933,-0.263252,0.053824,7.596000,2335.324416

-2.140402,5.950560,9.027488,17.974117,0.159534,-0.112701,-0.067416,7.600000,2341.625548

-1.453031,2.973551,8.617939,17.985882,-0.044843,-0.265117,-0.010127,7.600000,2357.127828

-0.964447,1.790411,9.341235,17.977058,-0.065894,-0.282970,0.050360,7.600000,2462.901626

-1.179999,-0.846506,10.842913,17.980000,-0.761894,-0.583274,0.094060,7.596000,2185.369808

-0.892597,2.367611,15.156343,17.971176,-0.304910,-0.016508,0.548911,7.600000,2226.008178

-7.150783,0.458780,7.947333,17.994705,-0.165018,0.040249,0.161475,7.600000,2269.298876

2.927460,1.768856,7.784472,17.980000,-0.115989,-0.339194,-0.210507,7.592000,2324.378850

-0.801586,1.548514,6.658813,17.974117,0.121962,0.007740,-0.000268,7.600000,2264.487904

2.982545,1.244346,0.817360,36.527058,0.121962,0.007740,-0.000268,7.600000,2350.743003

-3.199000,4.638089,1.411325,17.977058,-0.248687,0.087412,-0.391701,7.584000,2145.525356

-0.700995,-8.577628,19.273380,17.980000,0.546704,0.624334,0.459114,7.592000,2409.899358

-3.527118,3.699241,13.633110,17.974117,-0.498096,-0.863859,-1.177499,7.596000,2263.749498

1.555114,4.384217,16.638859,17.977058,0.228814,0.242227,-0.137230,7.596000,2343.206181

-4.760553,7.157650,3.118974,17.991764,0.122229,0.073290,-0.068749,7.600000,2287.994629

1.526373,3.538775,14.100139,17.982941,-0.520745,-0.617114,-1.522834,7.576000,2624.922439

-0.724945,4.585399,10.208232,17.988823,0.972777,1.093308,0.576623,7.592000,2328.666688

-4.873119,9.394598,0.410207,18.003529,-0.126914,-0.291231,-0.663226,7.584000,2309.687227

-0.382457,0.997660,11.135105,17.974117,0.301025,0.171348,-0.072213,7.596000,2315.464377

-0.705785,2.089788,-3.270938,17.991764,0.708979,-0.092716,-0.021585,7.608000,2367.980802

3.274737,-1.184203,18.147722,17.994705,-0.300381,-1.264085,-0.128703,7.592000,2232.449999

-5.914952,4.760235,5.537943,18.006470,-0.113590,0.153229,0.395695,7.576000,2769.413481

-4.652777,6.872643,12.109878,18.015293,-0.103465,0.056769,0.880924,7.588000,2227.436469

-1.553622,-0.611794,15.826948,18.009411,-0.193796,0.047177,1.134329,7.572000,2587.744934

-0.808771,7.871366,-0.056822,18.009411,0.727099,0.570509,1.532158,7.584000,2256.026009

-7.596256,-1.852414,18.626726,18.003529,-0.610010,-0.428725,0.301901,7.572000,2760.055541

0.230668,4.173456,6.498346,17.994705,0.380165,0.581967,0.657628,7.572000,2776.057437

-3.421737,5.303905,-0.375360,18.009411,-0.139704,-0.068468,-0.530795,7.580000,2679.629291

7.403751,-2.036830,18.353693,18.012352,0.221619,0.413563,0.124170,7.580000,2239.290368

-6.456227,1.237161,0.549118,18.012352,-0.048041,0.292855,-0.646173,7.588000,2394.110191

-0.598009,1.629945,16.176620,17.997646,-0.148231,0.228371,-0.477502,7.588000,2256.392563

1.701210,2.267020,18.140537,0.379997,-0.014999,-0.129222,-0.137230,7.600000,2371.215802

-9.095539,0.432435,7.578500,17.997646,-0.587361,-0.685595,-0.484963,7.560000,2160.211470

3.348983,4.274046,17.568127,18.279999,0.053482,-0.060741,-0.068749,7.588000,2777.167906

-0.890202,-0.408217,0.817360,36.527058,0.121962,0.007740,-0.000268,7.572000,2564.802237

-1.613497,4.693175,9.698093,17.997646,0.143013,0.176677,-0.268063,7.588000,2763.901183

-5.598810,19.266869,14.425861,17.994705,1.015411,1.142870,-0.310164,7.612000,2520.573542

3.698656,-6.599342,3.035148,18.009411,-0.685685,-0.109237,-0.423410,7.604000,2490.286834

-7.742352,8.173139,-0.413680,34.997646,-0.425884,-0.540107,-0.548115,7.592000,2225.651370

2.381395,-5.938317,15.261724,18.006470,-1.100034,-0.243001,-0.332813,7.536000,2777.167906

-4.834799,2.147269,4.335644,18.006470,-0.317967,0.180674,-0.765548,7.524000,2652.500459

2.625687,3.938743,12.902629,18.000587,-0.085878,0.155360,-0.089000,7.552000,2777.167906

-5.541329,4.939862,8.742480,18.012352,-0.094938,-0.434588,-0.480700,7.540000,2775.502520

0.685721,4.700360,14.401912,18.029999,-0.042179,-0.386624,-0.729576,7.552000,2431.419909

-1.304540,3.155572,0.201840,35.771175,0.053482,-0.060741,-0.137230,7.560000,2075.921568

-3.426527,3.818992,8.756850,18.029999,0.051883,-0.106039,0.203842,7.560000,2024.470058

-0.545319,-1.035712,10.251343,18.006470,0.040691,-0.431390,0.127101,7.564000,2040.834694

-2.327213,-0.741125,6.943820,18.027058,0.099313,-0.432722,-0.109784,7.564000,2567.647801

-1.088988,-2.405663,0.201840,35.771175,0.053482,-0.060741,-0.068749,7.576000,2222.801358

-2.075736,1.675450,2.833966,18.035881,1.180884,-0.217954,0.328280,7.588000,2387.524079

-4.264784,3.835757,-5.093548,18.024117,-0.175410,-0.495341,0.437797,7.572000,2125.491998

-2.995424,0.875513,21.974962,18.038822,0.304756,-0.142545,0.996302,7.596000,2334.931800

-6.643038,-5.152750,2.649550,18.044704,0.269050,0.107664,0.297904,7.604000,2396.589411

-0.890202,-0.408217,0.817360,36.527058,0.121962,0.007740,-0.000268,7.592000,2776.612565

-6.305341,7.969562,9.549602,18.041763,0.691393,1.080252,0.679478,7.600000,2157.861709

0.953964,12.218327,8.656260,18.053528,0.013779,-0.297626,-0.005331,7.596000,2285.734917

2.752623,7.519298,11.264436,18.453527,0.053482,-0.060741,-0.068749,7.584000,2209.361952

-0.119005,-5.435363,5.401427,18.056469,-0.199125,-0.156667,-0.567033,7.564000,2318.170311

-1.306935,0.571346,10.517190,18.035881,-0.372059,-0.947528,-0.068749,7.540000,2776.057437

-0.444728,1.067115,9.259805,18.035881,-0.256681,-0.183846,-0.689873,7.548000,2681.181532

-3.050509,0.504285,12.782878,18.027058,-0.565777,-0.419666,-0.426075,7.548000,2777.167906

-1.065038,0.049232,7.585685,18.024117,-0.462923,-0.448444,0.116709,7.556000,2776.057437

-6.518497,-1.023737,0.201840,35.771175,0.053482,-0.129222,-0.137230,7.568000,2777.167906

-2.937943,1.423973,12.198493,18.018234,-0.449600,-0.327203,1.116477,7.580000,2100.732209

-2.054181,1.007240,11.688354,18.021175,-0.030987,-0.143610,1.196682,7.576000,2099.779168

-1.711693,4.513548,5.147555,18.015293,-0.036849,0.122319,1.363754,7.572000,2104.552849

-0.890202,-0.408217,0.817360,36.527058,0.121962,0.007740,-0.000268,7.576000,2230.656849

-2.858907,2.954390,4.546406,0.382938,0.053482,-0.061007,-0.275257,7.592000,2315.850424

-0.890202,-0.408217,0.817360,36.527058,0.121962,0.007740,-0.000268,7.584000,2776.612565

0.077386,-4.874928,15.908379,18.000587,-0.444004,-0.135350,0.366651,7.576000,2553.482914

1.265316,-1.028527,10.598620,18.006470,-0.041113,0.303780,0.369849,7.584000,2732.357173

-2.902018,-0.477673,13.685801,17.991764,-0.124782,0.267275,-0.063686,7.580000,2771.071451

0.010326,4.894356,5.669670,17.994705,-0.346479,0.233700,-0.283251,7.572000,2190.886556

0.563575,4.379427,7.851532,18.000587,-0.184469,0.165220,0.141757,7.584000,2777.167906

0.477355,1.282667,16.531084,17.991764,0.225083,0.047443,0.008259,7.592000,2390.401000

-4.497101,9.044926,1.519101,17.985882,0.407344,0.485774,0.123637,7.596000,2775.502520

0.901273,4.036940,2.295087,17.991764,0.044688,-0.103641,-0.078874,7.592000,2328.276191

-2.427804,2.892120,24.233467,17.909410,0.121962,0.007740,-0.000268,7.604000,2527.915434

-5.002450,1.661080,10.031001,17.980000,-0.089875,0.262212,-0.356262,7.616000,2493.864870

1.622174,3.730376,6.091193,17.985882,-0.099468,-0.090584,-0.412219,7.592000,2205.151662

1.576669,1.902977,8.308981,17.985882,-0.346212,0.043446,-0.324553,7.588000,2170.679879

-3.780990,0.619246,11.396162,17.974117,-0.008604,0.150564,-0.462580,7.576000,2201.655201

-2.315238,0.432435,9.643007,17.977058,-0.413894,-0.122027,-0.730375,7.584000,2200.608508

2.881954,-6.556232,3.468647,17.994705,-0.514616,-0.561424,-0.679747,7.576000,2654.021341

-6.722074,0.449200,11.130315,17.980000,-0.006739,-0.191840,-0.834828,7.584000,2651.993851

-1.191974,6.453514,3.277045,17.988823,0.153405,-0.078327,-0.527331,7.584000,2330.229735

-0.147745,9.847257,7.473119,17.985882,0.485950,0.017599,-0.128170,7.600000,2468.593600

-0.756080,-0.709989,9.276569,17.977058,-0.049107,-0.091917,-0.157481,7.592000,2334.931800

-2.794242,0.818033,0.817360,36.527058,0.121962,0.007740,-0.000268,7.596000,2203.052345

0.187557,1.778436,10.284873,17.977058,-0.012601,0.159624,0.258201,7.592000,2230.656849

-3.615734,0.894674,7.135422,17.950586,0.123295,-0.128955,-0.068749,7.588000,2236.405184

-1.060248,-0.695619,0.817360,36.527058,0.121962,0.007740,-0.000268,7.584000,2183.994911

-2.226622,3.850127,8.407177,17.953527,0.022838,0.127382,0.486026,7.584000,2443.399454

-3.479218,2.226305,7.743757,17.974117,-0.173544,0.224641,-0.196118,7.576000,2128.750517

1.955082,4.214171,13.113391,35.771175,0.053482,-0.060741,-0.068749,7.588000,2219.603436

-2.779872,1.785621,3.427931,17.959410,-0.090408,0.015201,-1.113548,7.580000,2164.589145

-1.165629,3.023846,11.738649,17.944704,-0.138371,0.129780,-1.274758,7.584000,2143.207165

-2.332003,7.176810,10.656101,17.927057,0.104642,-0.012777,-2.592681,7.572000,2121.270903

-4.264784,3.548355,8.524533,17.932940,0.330603,0.037850,-1.254240,7.576000,2164.251831

-0.952472,4.075260,11.827266,17.950586,0.051350,-0.334664,-0.723181,7.584000,2199.562663

-5.486244,1.184471,10.612990,17.938822,-0.066693,-0.177185,-0.000534,7.584000,2213.235562

-5.567675,0.238438,0.817360,36.527058,0.121962,0.007740,-0.000268,7.580000,2167.968649

-0.847091,1.919742,8.922107,17.938822,0.481953,-0.492143,0.650967,7.584000,2777.167906

-1.280590,1.967642,0.194655,36.527058,0.121962,0.007740,-0.000268,7.588000,2776.057437

-2.375113,8.525206,5.504413,17.944704,0.331935,-0.310150,0.992838,7.588000,2767.757631

1.871256,-7.768112,0.201840,35.771175,-0.014999,-0.129222,-0.274191,7.572000,2776.057437

-3.697164,4.599769,8.134145,18.138823,-0.014466,0.007740,-0.000268,7.560000,2775.502520

0.819842,-0.408217,0.817360,36.527058,0.121962,0.007740,-0.000268,7.584000,2755.673628

1.447338,-1.481186,11.360236,17.941763,0.084658,0.089278,0.415414,7.572000,2585.817452

1.782640,4.896751,-2.487767,17.950586,0.009515,0.084481,0.009858,7.584000,2191.924138

0.407899,-4.558785,17.913010,17.797646,0.121962,0.007740,-0.000268,7.584000,2245.083198

0.424664,3.773487,3.612348,17.944704,-0.157024,0.225174,-0.520136,7.588000,2315.078330

1.152750,3.866893,13.592395,17.935881,0.130756,0.123118,-0.191588,7.588000,2334.931800

1.428177,7.854601,0.905976,17.924116,1.033264,0.531605,-0.265931,7.612000,2601.318673

-0.473468,5.864339,12.976874,17.932940,0.053482,-0.060741,-0.068749,7.604000,2404.890913

-0.037575,0.406090,12.643967,17.924116,-0.080549,0.263544,-0.152951,7.608000,2388.345330

-0.880621,3.756722,4.136857,17.932940,-0.052038,0.215048,-0.155615,7.600000,2256.026009

0.285753,-1.782958,14.164804,17.912352,0.090253,0.119654,0.217699,7.572000,2648.958231

-1.088988,1.232371,8.986773,17.903528,-0.099201,0.169216,0.142823,7.572000,2091.870918

-2.274523,3.442974,10.866862,17.912352,0.240272,0.251287,-0.182528,7.584000,2227.436469

-1.366810,5.814044,5.719965,35.771175,-0.014999,-0.129222,-0.137230,7.596000,2288.371777

0.858163,0.178563,7.288703,18.127058,0.053482,-0.060741,-0.137230,7.584000,2148.845532

0.280963,1.687425,9.041858,17.897646,0.031898,0.006941,-0.402893,7.576000,2446.412827

-0.018414,2.767579,10.038186,17.894705,0.089987,0.143903,-0.068749,7.576000,2130.056764

-4.523446,1.831126,5.643324,17.915293,-0.009937,-0.085255,0.375444,7.580000,2156.521137

-3.067274,3.624996,8.129354,17.909410,0.067871,0.170016,0.319221,7.584000,2278.608296

-3.977382,3.306458,8.491003,17.909410,0.060143,0.161756,0.321885,7.592000,2297.458510

-0.890202,-0.408217,0.817360,36.527058,0.121962,0.007740,-0.000268,7.584000,2776.612565

-0.890202,-0.408217,0.817360,36.527058,0.121962,0.007740,-0.000268,7.564000,2776.612565

-4.832404,2.101763,11.408137,17.891764,-0.052304,0.143903,-0.136697,7.564000,2775.502520

-0.890202,-0.408217,0.817360,36.527058,0.121962,0.007740,-0.000268,7.572000,2777.167906

0.815052,3.088511,14.947976,17.885881,0.225883,0.047443,0.067680,7.572000,2577.657275

-0.890202,-0.408217,0.817360,36.527058,0.121962,0.007740,-0.000268,7.544000,2755.126975

-2.126032,-10.256537,-18.802639,36.527058,0.121962,0.007740,-0.000268,7.572000,2777.167906

-0.657885,3.253768,10.617781,18.453527,0.053482,-0.061007,-0.137230,7.544000,2776.612565

0.101337,0.552186,7.226432,17.891764,0.034296,-0.149473,-0.090599,7.560000,2777.167906

-1.419501,10.450802,9.307705,17.874117,0.206697,0.442873,0.015453,7.572000,2198.517877

2.283200,-0.812975,10.634545,17.868235,-0.378454,-0.033295,-0.225962,7.568000,2589.192506

-1.795519,3.342384,12.337404,17.888823,0.104376,0.144435,-0.096727,7.556000,2776.612565

-2.078131,1.668265,8.692184,17.877058,-0.283061,0.097005,-0.142292,7.552000,1763.953245

1.435363,2.753209,7.954518,17.865294,-0.023260,0.228904,0.028777,7.536000,2177.487831

-1.469796,3.490875,10.464499,17.868235,-0.062163,0.197461,-0.291511,7.536000,2747.495018

-1.218319,3.591465,0.817360,36.527058,0.121962,0.007740,-0.000268,7.544000,2641.400008

-1.517697,6.070311,8.318562,17.871176,0.135552,0.268074,-1.351233,7.564000,2776.057437

-2.772687,3.763907,11.851215,17.859411,0.093984,0.261679,-1.281686,7.564000,2776.612565

-4.145033,3.270533,0.817360,36.527058,0.121962,0.007740,-0.000268,7.580000,2774.393535

-0.459098,0.109107,11.345866,17.856470,0.127825,-0.539307,-0.276323,7.564000,2776.057437

-1.917665,1.941297,6.836044,17.853529,0.367108,-0.333065,-0.134298,7.564000,2776.612565

-1.694928,-1.847624,18.257893,17.862352,0.824624,-0.101776,-0.092464,7.588000,2289.881218

-1.421896,-0.408217,0.817360,36.527058,0.121962,0.007740,-0.000268,7.580000,2325.546739

-3.352282,0.427645,9.884905,17.835880,0.053482,-0.274177,0.094060,7.584000,2164.589145

-3.531908,0.588111,3.475832,17.868235,0.076397,-0.390088,0.490023,7.580000,2134.312820

0.846188,1.107830,14.272580,17.853529,0.085990,-0.293629,0.037570,7.564000,2067.268132

-1.065038,2.049073,7.075546,17.874117,0.330070,0.006141,0.024247,7.564000,2045.042653

0.570760,1.503009,6.366621,17.865294,0.150474,-0.294961,0.023181,7.544000,2775.502520

0.846188,5.327855,8.354486,17.841763,0.167261,-0.053813,0.105518,7.556000,2089.981786

-0.377667,4.302787,14.782720,17.859411,-0.227636,-0.046352,0.006927,7.568000,2114.165682

-1.350045,7.387572,8.239526,17.865294,0.279442,0.319768,0.041034,7.580000,2277.860780

-7.450160,12.551234,5.351132,17.856470,-0.445869,-0.228878,-0.216102,7.568000,2128.424220

2.635267,2.779554,14.866545,17.862352,0.588805,0.077553,-0.128969,7.572000,2144.862380

-0.839906,5.794884,3.312970,17.859411,0.121696,-0.060741,-0.068749,7.564000,2061.130996

-1.917665,0.762947,-0.442420,17.882940,-0.206319,-0.247264,-0.015456,7.556000,2777.167906

4.517753,-8.247116,36.785763,17.879999,-0.821048,-0.720235,0.123371,7.560000,1981.992559

-3.941456,13.403861,1.219723,17.871176,-0.236963,0.277134,0.297371,7.568000,2015.068893

0.197137,-2.623610,12.330219,17.891764,0.319411,0.027725,0.638976,7.564000,2024.174907

-6.520892,1.876631,13.087046,17.894705,-0.187134,0.084215,0.796988,7.560000,2573.357996

-5.069510,6.319393,7.231222,17.882940,-0.017131,-0.195837,0.967257,7.560000,2639.893534

-1.448241,6.946888,10.577065,17.903528,0.004719,0.061033,1.171101,7.552000,2776.057437

-1.927245,2.472991,9.125683,17.885881,0.241338,0.447670,1.127934,7.560000,2638.388754

0.022301,-4.280963,8.002419,17.891764,-0.679557,-0.374633,0.889983,7.544000,2777.167906

-4.952155,-0.674064,11.436877,17.903528,-0.468518,0.002411,0.753821,7.544000,2777.167906

1.006654,1.479059,6.644443,17.897646,-0.130378,0.099403,0.591812,7.568000,2694.709716

-2.286498,18.076544,4.558381,17.903528,1.125993,0.819918,0.160676,7.604000,2620.958779

-3.266061,-2.678696,17.702248,17.906469,-0.764825,-0.900364,-0.014923,7.580000,2776.057437

4.778810,5.900265,7.806027,17.900587,0.942667,0.778616,0.467907,7.600000,2589.675383

-2.092501,-0.089679,12.052397,17.918234,-0.244157,0.065563,0.280850,7.596000,2426.745812

-0.399222,1.012030,10.244158,17.915293,-0.079483,0.239563,0.209438,7.596000,2345.580944

-2.355953,1.524564,6.009762,17.927057,-0.081082,0.224641,-0.130568,7.584000,2292.149193

-1.369205,1.414393,9.092153,17.921175,-0.062430,-0.047151,-0.648837,7.588000,2220.313238

-2.743947,3.708822,8.632309,17.906469,0.164596,0.033321,-1.128203,7.592000,2257.126095

0.364789,4.539894,6.740243,17.929998,0.184848,-0.024768,-0.932620,7.596000,2261.537460

3.411253,1.682635,10.337564,17.906469,0.206697,-0.136416,-0.548914,7.592000,2257.860052

-2.224227,1.057535,9.690907,17.915293,0.168860,0.001612,-0.162277,7.588000,2233.886765

-2.609826,1.572464,8.847861,17.912352,0.114501,-0.401813,-0.068749,7.592000,2245.083198

-1.072223,2.523287,11.693144,17.915293,-0.023526,-0.194238,0.252872,7.592000,2549.731771

-0.918942,5.428446,11.187795,17.929998,0.022039,-0.087120,0.303766,7.588000,2271.897810

-1.009952,5.914635,11.561419,17.921175,-0.001676,-0.087120,0.414881,7.600000,2325.546739

-0.813561,4.432117,11.786550,17.924116,0.264253,0.123385,0.450054,7.600000,2409.899358

1.310822,3.517220,12.253579,17.924116,0.348722,0.096206,0.430869,7.608000,2517.831377

-0.665070,7.694135,0.666474,17.932940,0.497941,0.370929,0.482296,7.612000,2281.978477

-0.576454,-4.288148,11.781760,17.927057,-0.121051,-0.028499,0.519334,7.604000,2435.257711

-3.953431,6.836717,-3.723597,17.947645,0.020973,0.340818,0.487625,7.596000,1967.668973

3.511845,-5.401833,19.977516,17.924116,-0.053903,0.285661,0.526262,7.596000,2389.578266

-1.623077,3.821388,3.015988,17.929998,-0.518347,0.181207,0.320020,7.600000,1555.313611

-4.609667,-7.715421,21.840841,17.912352,-0.453597,0.239563,0.354127,7.584000,2154.847912

1.682050,0.655172,13.364868,17.921175,-0.320632,0.115125,0.463377,7.592000,2411.154542

-9.366176,5.397311,0.218605,17.909410,-0.526874,0.107397,0.227025,7.572000,2113.843835

-0.581244,1.931717,14.519267,17.921175,0.390823,0.199327,0.459646,7.588000,2286.864243

-2.880463,0.748577,6.586962,17.927057,-0.458659,-0.044753,0.423141,7.576000,2116.098673

-0.054340,-0.949491,10.859677,17.921175,-0.623067,0.191599,0.517735,7.564000,1814.430844

-0.207621,0.168983,7.659931,17.906469,0.046820,0.234233,0.474302,7.564000,1991.943767

-2.875673,-4.649796,11.125525,17.909410,-0.697143,-0.017307,0.113778,7.564000,2444.259692

0.156422,6.154137,0.985011,17.903528,0.666612,0.543330,-0.433269,7.596000,2473.871346

-6.128109,7.478582,12.552957,17.912352,-0.208185,-0.020505,-1.274758,7.588000,2243.269707

3.200492,0.583321,4.338039,17.921175,0.245068,0.340285,-1.601441,7.612000,2543.659894

8.831182,-1.897919,11.760204,17.921175,-0.710999,-0.956587,-1.719484,7.596000,2331.012212

-0.811166,1.656290,11.032119,17.915293,-0.563912,0.053305,-1.382142,7.608000,2432.271671

-8.065681,2.099368,11.853611,36.527058,0.121962,0.007740,-0.000268,7.596000,2290.258790

2.778969,1.730535,8.582014,17.924116,0.682599,-0.111102,-1.378945,7.604000,2460.283411

-3.618129,4.195011,8.347301,18.453527,0.053482,-0.060741,-0.068749,7.616000,2468.593600

-1.970355,3.790252,10.133986,17.932940,0.372437,-0.176918,-0.531327,7.608000,2514.639600

-0.006439,-1.162648,9.889694,17.929998,0.451310,-0.267249,-1.095961,7.620000,2561.018041

-3.345096,-1.023737,-0.418470,33.503529,-0.151961,-0.266183,-0.548115,7.604000,2776.057437

-0.890202,-0.408217,0.817360,36.527058,0.121962,0.007740,-0.000268,7.600000,2769.413481

-0.890202,-0.408217,0.817360,36.527058,0.121962,0.007740,-0.000268,7.592000,2714.198539

1.334772,2.044283,0.817360,36.527058,0.121962,0.007740,-0.000268,7.604000,2776.612565

-2.126032,-5.351537,-9.030960,12.338821,-4.260813,8.739183,-0.000268,7.608000,2771.071451

-1.577572,0.683912,0.817360,36.527058,0.121962,0.007740,-0.000268,7.600000,2776.612565

-0.890202,-0.408217,0.817360,36.527058,0.121962,0.007740,-0.000268,7.600000,2777.167906

-2.585875,9.392203,-4.106800,24.385881,0.121962,0.007740,-0.000268,7.596000,2776.612565

-0.894992,-1.653627,0.817360,36.527058,0.121962,0.007740,-0.000268,7.588000,2776.612565

-0.890202,-0.408217,0.817360,36.527058,0.121962,0.007740,-0.000268,7.604000,2775.502520

-0.890202,-0.408217,0.817360,36.527058,0.121962,0.007740,-0.000268,7.612000,2774.948028

-0.890202,-0.408217,0.817360,36.527058,0.121962,0.007740,-0.000268,7.604000,2776.612565

-0.890202,-0.408217,0.817360,36.527058,0.121962,0.007740,-0.000268,7.632000,2776.057437

-0.392037,-1.023737,-0.413680,33.503529,-0.151961,-1.083690,-0.000268,7.628000,2777.167906

-0.890202,-0.408217,0.817360,36.527058,0.121962,0.007740,-0.000268,7.628000,2777.167906

-0.890202,-0.408217,0.817360,36.527058,0.121962,0.007740,-0.000268,7.624000,2776.612565

-0.784821,3.430999,9.362790,35.771175,0.053215,-0.546502,-4.383043,7.640000,2772.731539

-2.025441,0.140242,8.450288,17.882940,0.384961,-0.674937,-0.000268,7.636000,2776.612565

-4.571347,-1.634467,0.817360,36.527058,0.121962,0.007740,-0.000268,7.628000,2776.612565

-5.213212,-1.588962,10.457314,17.862352,-0.032852,-0.533978,0.912366,7.612000,2776.057437

-3.373837,1.467083,6.974955,17.882940,0.235742,-0.529715,1.500183,7.612000,2777.167906

-1.934430,0.564161,11.029724,17.882940,-0.107462,-0.478021,1.691503,7.616000,2400.732958

-1.120123,-0.839321,9.034673,17.868235,0.072400,-0.306686,1.562801,7.612000,2428.868225

0.108522,5.866735,9.858560,17.856470,0.126759,0.215847,1.609965,7.612000,2378.119524

-1.031508,0.147428,10.778247,0.382938,0.053482,-0.060741,-0.068749,7.624000,2402.810028

-0.176486,1.649105,6.757009,17.877058,0.127025,0.289924,0.988308,7.624000,2434.403831

0.891693,-0.259726,5.248146,17.859411,0.000722,0.465523,0.437530,7.620000,2433.977102

1.521583,-0.082494,10.989009,17.877058,-0.028855,0.413829,-0.354130,7.620000,2394.936103

1.830541,-0.456117,9.077783,17.868235,-0.089875,0.500696,-0.971524,7.624000,2404.890913

4.163290,3.653736,9.326865,17.868235,-0.030987,0.492169,-1.592381,7.616000,2370.810898

2.091598,1.708980,9.992681,17.877058,-0.049107,0.357073,-2.085337,7.612000,2366.366692

0.477355,0.964129,8.299401,17.847647,0.046554,0.260613,-2.106387,7.620000,2380.157608

-0.238756,1.153336,8.730505,17.871176,0.080394,0.236099,-1.918798,7.620000,2394.936103

-0.691415,1.605994,9.487331,17.865294,0.165129,0.049042,-1.534292,7.620000,2399.488368

-1.872159,1.519774,7.726991,17.853529,0.191509,0.077287,-1.077842,7.620000,2426.321838

-2.411039,4.652460,9.348420,17.838821,0.501139,0.021863,-0.829233,7.628000,2487.610140

-2.645751,1.728140,9.465776,17.859411,0.364177,-0.121228,-0.770611,7.628000,2508.280200

-2.777477,4.218961,11.614109,17.859411,0.577080,-0.015442,-0.660562,7.636000,2581.970963

-4.173773,-0.654904,13.113391,17.862352,0.648226,0.067428,-0.408488,7.632000,2638.890065

-3.685189,-0.242961,6.946215,35.768234,-0.014999,-0.129222,-0.274191,7.640000,2774.948028

-4.389325,3.459739,8.033554,17.844706,0.525387,-0.060741,-0.068749,7.636000,2777.167906

-3.436107,1.155731,6.862390,17.841763,0.297828,-0.490012,0.378642,7.616000,2775.502520

-0.890202,-0.408217,0.817360,36.527058,0.121962,0.007740,-0.000268,7.596000,2428.868225

1.593434,-0.444142,20.925945,17.859411,0.088122,-0.425261,0.496152,7.584000,2760.055541

-1.232689,4.961417,4.982299,17.850588,0.160067,-0.339993,0.561435,7.604000,2253.097388

-0.890202,-0.408217,0.817360,36.527058,0.121962,0.007740,-0.000268,7.580000,2774.393535

-0.753685,6.946888,0.199445,35.015293,-0.014999,-0.129222,-0.137230,7.584000,2774.393535

-0.890202,-0.408217,0.817360,36.527058,0.121962,0.007740,-0.000268,7.588000,2776.057437

-4.554582,1.629945,8.814330,17.980000,0.053215,-0.129754,-0.273125,7.584000,2769.413481

-2.423014,-1.023737,0.194655,33.503529,-0.973731,-1.092217,-2.191655,7.636000,2769.966067

-0.890202,-0.408217,0.817360,36.527058,0.121962,0.007740,-0.000268,7.620000,2776.612565

-0.971632,-1.023737,0.201840,35.762352,-0.151961,-0.266183,-0.274191,7.628000,2777.167906

-2.396669,4.494388,0.199445,33.491764,-0.425884,-0.540107,-0.548115,7.604000,2768.861319

-2.011071,3.603441,7.580895,17.815292,-0.141303,0.007740,-0.000268,7.620000,2776.612565

-5.349728,-1.023737,0.201840,35.771175,0.053215,-0.129222,-0.137230,7.624000,2441.251616

2.326310,3.078931,9.427456,17.803528,-0.151162,-0.060741,-0.137230,7.624000,2776.612565

-0.763265,3.179522,11.520702,17.818233,-0.039247,-0.015708,-0.581156,7.620000,2467.277818

-2.966683,1.373677,11.154264,17.818233,-0.094139,-0.196903,-0.102323,7.624000,2391.636055

-3.630104,0.688702,7.791657,17.812351,0.139549,-0.118829,0.517469,7.620000,2399.903232

-1.441056,3.780672,10.407019,17.803528,0.031632,-0.112967,0.609665,7.620000,2419.135891

-2.571505,2.278995,10.014235,17.835880,-0.076819,0.015201,0.353061,7.632000,2411.992319

1.044974,4.345897,8.359277,17.818233,0.068137,-0.092716,-0.011193,7.628000,2466.401266

-0.279472,2.542447,8.229946,17.824116,-0.006206,-0.052214,-0.212105,7.628000,2509.640265

1.193465,2.853800,10.244158,17.815292,0.052416,0.064497,-0.122574,7.628000,2466.839436

-1.747618,1.977222,7.286308,17.812351,0.185114,0.070625,-0.208641,7.628000,2185.369808

0.271383,2.856194,7.688671,17.821175,0.059610,0.015468,-0.256072,7.620000,2405.307471

-1.292565,1.697005,9.726833,17.812351,-0.070157,-0.074330,-0.290712,7.624000,2425.050551

-2.506840,3.371124,9.257409,17.818233,-0.081348,-0.067935,-0.493490,7.624000,2458.976317

0.611476,4.920702,8.917316,17.827057,-0.036050,-0.033029,-0.515873,7.632000,2489.393967

-0.609984,3.969878,0.817360,36.527058,0.121962,0.007740,-0.000268,7.632000,2550.668497

-0.540529,2.880145,8.428732,17.835880,0.100112,-0.184646,-0.662960,7.640000,2586.299058

-1.481771,2.796319,8.979588,17.844706,0.149674,0.007740,-0.000268,7.644000,2777.167906

-2.803822,1.126991,10.145962,17.824116,0.011380,-0.134551,0.029310,7.640000,2637.887443

-1.417106,2.003568,9.252620,17.847647,0.239739,-0.088453,0.442060,7.636000,2540.867301

-1.098568,2.839429,9.355605,17.856470,0.094783,-0.219286,0.640574,7.620000,2291.392566

-3.613339,-1.210549,9.159214,17.856470,0.086523,-0.071133,0.878525,7.636000,2698.375259

-0.748895,2.746024,9.063413,0.382938,-0.014999,-0.266183,-0.274191,7.628000,2776.612565

-1.845814,2.528077,10.239367,17.853529,0.121696,-0.060741,-0.068749,7.636000,2629.893805

-2.581085,1.735325,10.586645,17.874117,-0.063229,0.126582,-0.068749,7.648000,2571.928011

-2.315238,1.124595,14.277370,17.827057,0.050817,0.077553,0.786063,7.644000,2616.513938

-0.662675,4.702755,7.904223,17.847647,0.428394,0.214782,0.123904,7.656000,2776.612565

2.103573,6.235568,3.030358,17.844706,0.444915,0.452466,0.062617,7.656000,2776.612565

1.962267,-9.533241,28.264284,17.824116,0.119031,-0.108704,-0.024249,7.652000,2690.011464

-4.614457,1.637130,7.588080,17.835880,0.335932,0.970203,-0.006663,7.664000,2776.612565

-4.116293,2.779554,-14.721526,17.835880,-0.642785,0.203057,-0.353597,7.648000,2470.350306

-0.976422,-6.196979,16.265236,17.835880,-1.266574,-0.188110,-0.343205,7.620000,2225.294775

-4.034862,7.320511,8.505373,17.865294,-0.561780,0.259547,0.191052,7.612000,2127.771839

-3.278036,-3.102614,4.179967,17.847647,-0.985189,0.071958,0.057821,7.596000,2028.314216

-2.231412,-3.880995,28.158903,17.835880,-0.327560,-0.138281,-0.087667,7.596000,2569.548374

1.006654,-2.688276,9.863349,17.829998,-0.123183,0.043446,-0.116445,7.592000,2777.167906

-2.250573,5.356595,11.949411,17.824116,-0.324895,0.081284,-0.310430,7.584000,2771.071451

-1.108148,0.540211,4.172782,17.835880,0.057212,0.122319,-0.659230,7.596000,2113.521987

-2.185907,4.899147,14.193544,17.853529,-0.555652,0.187869,-0.980050,7.580000,2776.612565

0.314493,-1.406940,10.833332,17.844706,0.342060,0.408233,-1.136197,7.576000,2481.830024

-0.667465,3.761512,6.340275,17.815292,0.307420,0.227305,-0.970991,7.596000,2495.657808

-0.890202,-0.408217,0.817360,36.527058,0.121962,0.007740,-0.000268,7.616000,1982.558494

0.774337,-0.987812,9.504096,17.850588,0.573616,-0.058609,-0.342139,7.632000,2638.890065

-5.989198,16.596420,11.333891,17.847647,0.910958,0.374393,0.350663,7.644000,2757.315283

5.528451,7.028319,11.075230,17.853529,-0.191131,-0.241935,0.228890,7.628000,2408.227404

-0.365692,-0.724360,7.180927,17.862352,-0.010469,0.483909,0.154547,7.628000,2506.921831

-9.691898,0.995264,10.792617,17.871176,0.141947,-0.351185,-0.630984,7.632000,2537.616833

-4.274364,-1.047687,8.491003,17.859411,0.167527,-0.624575,-1.430905,7.624000,2411.573430

6.136786,3.493270,8.742480,17.859411,0.357515,-0.333865,-0.726911,7.624000,2323.989837

-1.718878,1.570069,8.749665,17.868235,-0.072289,-0.177984,0.627518,7.612000,2163.577413

-2.947523,2.130504,8.122169,17.865294,0.060942,-0.233941,0.680277,7.608000,2200.608508

-3.069669,3.148387,11.453642,17.874117,-0.062163,-0.099111,0.500415,7.612000,2280.854024

-0.229176,2.331685,8.886181,17.882940,-0.102133,-0.159865,0.310427,7.620000,2242.182969

0.853373,0.453990,9.108918,17.885881,-0.082414,-0.057810,0.104185,7.612000,2214.294332

-0.562084,1.148546,8.792775,17.874117,-0.091741,0.026393,0.213169,7.604000,2125.491998

-0.576454,1.059930,10.337564,17.885881,-0.219376,0.035186,0.470571,7.596000,2774.948028

-1.465006,2.209539,9.477751,17.900587,0.099047,0.197195,0.483362,7.588000,2598.884371

-2.176327,1.996382,8.814330,17.900587,-0.004874,0.155094,0.180927,7.580000,2777.167906

0.209112,4.096815,9.391530,17.918234,0.184848,0.162288,-0.081539,7.592000,2763.351139

-2.652936,4.377032,9.791499,17.921175,-0.003808,0.190533,-0.164409,7.584000,2660.122457

-3.045719,6.733731,8.131750,17.879999,0.024704,0.180141,-0.152418,7.600000,2117.712360

-4.178564,5.452396,9.101733,17.906469,-0.106662,0.051973,0.037836,7.604000,2226.008178

-4.283944,5.679923,7.327023,17.915293,0.037760,-0.011179,0.199579,7.616000,2194.695754

-4.547396,5.605677,8.251501,17.912352,0.088655,-0.090052,0.576091,7.620000,2594.514112

-4.410880,1.543724,8.129354,17.912352,-0.076019,-0.163862,0.843352,7.636000,2609.629709

-5.222792,1.665870,7.408454,17.924116,0.028701,-0.214490,0.826032,7.644000,2640.395480

-2.612221,3.490875,9.681328,17.915293,0.157935,-0.313081,0.982179,7.652000,2687.928673

-3.349886,0.535421,10.349538,17.915293,-0.073621,0.181740,0.921692,7.644000,2618.981505

1.744320,1.922137,11.096785,17.897646,0.023105,-0.054612,0.567830,7.644000,2544.126032

-1.431476,-1.018947,7.482699,17.909410,-0.155958,0.230503,0.234752,7.632000,2451.163201

0.051041,-0.132790,12.040422,17.915293,-0.142102,0.054638,-0.534259,7.628000,2417.872020

-0.890202,-0.408217,0.817360,36.527058,0.121962,0.007740,-0.000268,7.616000,2317.783204

0.024696,1.455108,9.247829,17.897646,0.019907,-0.241669,-0.745297,7.612000,2275.248074

0.764757,3.835757,0.201840,35.771175,0.053482,-0.060741,-0.137230,7.616000,2777.167906

-1.239874,3.253768,8.910131,17.915293,0.112103,-0.213957,-0.204378,7.624000,2357.527860

1.789825,6.822347,8.376042,17.897646,0.197638,-0.106839,-0.125239,7.628000,2776.612565

1.883231,5.885894,7.085126,17.918234,0.020707,-0.144410,0.131631,7.644000,2301.266013

1.243761,4.070470,0.201840,35.771175,0.053482,-0.060741,-0.068749,7.652000,2776.612565

0.776732,5.406890,8.332932,17.909410,0.071335,0.231302,0.172400,7.664000,2774.948028

-0.890202,-0.408217,0.817360,36.527058,0.121962,0.007740,-0.000268,7.660000,2775.502520

-6.698124,2.161639,19.024300,17.903528,0.803840,-0.129754,-0.274191,7.668000,2775.502520

0.867743,-6.335890,13.503779,17.909410,0.446780,-0.135883,-0.423410,7.668000,2776.612565

2.362235,4.297997,-3.737967,17.915293,0.084125,-0.225947,-0.164409,7.660000,2776.057437

0.393529,2.520892,12.009287,17.921175,-0.014733,-0.060741,-0.274191,7.648000,2777.167906

2.383790,2.753209,-0.974114,17.918234,-0.561247,-0.363708,0.063150,7.620000,2569.072913

-5.565279,5.538617,9.367580,17.903528,0.047086,-0.173188,-0.407422,7.628000,2776.612565

-0.801586,8.173139,0.201840,35.771175,0.053215,-0.129754,-0.274191,7.628000,2674.983586

2.189794,3.354359,6.680368,17.915293,-0.868745,-0.464698,1.123405,7.596000,2776.057437

3.796852,1.584439,9.283754,17.927057,-1.516249,-0.266183,-0.274191,7.580000,2776.612565

2.625687,-0.254936,13.894167,17.897646,-0.621201,0.477514,1.305665,7.584000,2761.702281

-5.570070,-0.805790,12.090717,17.927057,-0.335021,0.769024,0.406087,7.584000,2776.612565

-2.969078,-1.718293,10.624966,35.771175,0.053482,-0.060741,-0.137230,7.596000,2756.220705

-2.554740,2.626273,8.665839,17.927057,0.290367,0.221976,-1.358693,7.596000,2777.167906

0.240248,4.415352,10.689631,17.929998,0.071601,-0.090851,-1.008295,7.580000,2761.702281

-1.534462,-5.562299,7.200087,17.927057,-0.515149,-0.042621,-0.133765,7.580000,2774.948028

-0.890202,-0.408217,0.817360,36.527058,0.121962,0.007740,-0.000268,7.620000,2776.057437

-3.519933,2.884935,6.668393,18.450586,-0.014999,-0.129222,-0.137230,7.632000,2777.167906

-2.988239,0.360584,19.364391,35.771175,0.053482,-0.060741,-0.068749,7.652000,2776.612565

-5.905372,4.674015,-4.097220,24.385881,8.715910,-1.087953,-2.191655,7.644000,2776.612565

-2.229017,-0.413007,-0.418470,33.503529,-0.151961,-0.266183,-2.191655,7.648000,2775.502520

-0.890202,-0.408217,0.817360,36.527058,0.121962,0.007740,-0.000268,7.628000,2775.502520

-0.890202,-0.408217,0.817360,36.527058,0.121962,0.007740,-0.000268,7.612000,2777.167906

1.222206,-2.242802,11.903906,0.362350,-4.244026,-0.555028,8.594747,7.660000,2777.167906

-6.494547,-1.030922,-1.644720,33.503529,-0.425884,-0.540107,-2.183129,7.660000,2775.502520

-0.890202,-0.408217,0.817360,36.527058,0.121962,0.007740,-0.000268,7.656000,2775.502520

1.842516,2.547237,12.914604,18.027058,0.060410,2.190601,-0.000268,7.656000,2776.612565

8.919798,-0.408217,0.817360,36.527058,0.121962,0.007740,-0.000268,7.644000,2777.167906

-0.890202,-0.408217,0.817360,36.527058,0.121962,0.007740,-0.000268,7.624000,2776.612565

-0.674650,0.973709,9.700488,18.032940,0.125426,-0.207561,-0.000268,7.620000,2777.167906

-2.672096,1.335357,0.817360,36.527058,0.121962,0.007740,-0.000268,7.608000,2763.351139

-0.564479,-1.026132,-4.087640,36.527058,0.121962,0.007740,-0.000268,7.608000,2772.177894

-2.365534,2.017938,9.355605,18.038822,0.138483,-0.060741,-0.068749,7.592000,2753.487863

-0.890202,-0.408217,0.817360,36.527058,0.121962,0.007740,-0.000268,7.568000,2773.839254

-1.168024,0.166588,10.407019,18.024117,-0.064561,0.022129,-0.000268,7.548000,2776.612565

-0.890202,-0.408217,0.817360,36.527058,0.121962,0.007740,-0.000268,7.512000,2776.612565

-1.788334,0.762947,10.835728,18.038822,-0.022460,-0.065271,-0.467909,7.496000,2777.167906

